step,tof,accX,accY,accZ,acc,incl,orient,roll,pitch,gyroX,gyroY,gyroZ,mic0,mic1,mic2,mic3,
0,35,-219,-106,737,776.1224365234375,18.26738739013672,64.16876220703125,-16.389878279187194,-7.849784967781517,-29,-138,141,3,2,2,2,
1,31,-218,-105,734,772.8551025390625,18.243104934692383,64.27872467041016,-16.383846658535994,-7.808345462227658,-59,-129,126,5,2,2,2,
2,31,-222,-106,734,774.1292114257812,18.52703094482422,64.47317504882812,-16.664908748674716,-7.870124477613664,-26,-120,121,3,2,2,2,
3,31,-222,-104,738,777.6528930664062,18.373634338378906,64.8949966430664,-16.587208679638646,-7.685521465933661,-36,-103,141,2,2,2,3,
4,31,-220,-105,739,778.1683349609375,18.253952026367188,64.48272705078125,-16.42232152867294,-7.754701659785889,-48,-131,187,4,3,2,2,
5,31,-220,-107,739,778.4407348632812,18.314632415771484,64.05997467041016,-16.416412515863712,-7.900562115189219,-47,-169,140,3,1,2,2,
6,34,-206,-260,727,799.1026000976562,24.5244083404541,38.38587951660156,-14.938919538157828,-18.987688005378214,-187,-221,6233,19,8,7,6,
7,34,-225,-69,708,746.0897827148438,18.384918212890625,72.94781494140625,-17.55206206668295,-5.306420356799217,60,301,456,16,9,12,5,
8,34,-207,-75,727,759.6071166992188,16.84650230407715,70.08035278320312,-15.813638855902663,-5.666345176813501,-31,-194,-996,9,6,6,7,
9,34,-246,-62,742,784.1708984375,18.873666763305664,75.85113525390625,-18.282781865007035,-4.534789331670072,-49,-144,-904,6,5,6,6,
10,34,-213,-145,765,807.2291870117188,18.61264991760254,55.75120544433594,-15.299555974404807,-10.348022711928538,-124,-74,-71,12,6,6,6,
11,34,-220,-229,807,867.231201171875,21.477630615234375,43.84766387939453,-14.695436473231544,-15.311031516966409,-340,269,-97,14,12,8,8,
12,34,-240,-92,735,778.6456298828125,19.27262306213379,69.02323150634766,-17.95244441109187,-6.785569624335358,-66,-29,-272,7,8,7,6,
13,34,-215,-63,732,765.5181274414062,17.015403747558594,73.66505432128906,-16.311272133953725,-4.720621278316494,-98,-207,777,8,7,6,6,
14,34,-213,-83,767,800.341796875,16.594228744506836,68.70728302001953,-15.434482420792182,-5.952601036940146,-145,-11,1163,10,5,6,7,
15,34,-227,-124,741,784.8477783203125,19.24041748046875,61.350677490234375,-16.81174721945109,-9.090388537851881,54,88,821,7,9,7,6,
16,38,-201,-126,768,803.8040771484375,17.16326141357422,57.91421127319336,-14.481118036725409,-9.01857242779094,-175,15,-481,7,11,9,9,
17,38,-193,-85,717,747.3707275390625,16.387826919555664,66.22725677490234,-14.965574945026292,-6.530496687319849,-131,-48,-843,6,5,5,6,
18,38,-234,-69,699,740.3499145507812,19.23763656616211,73.56755828857422,-18.425225161951346,-5.3476801386378385,141,-141,-740,8,6,5,4,
19,38,-205,-177,729,777.6856689453125,20.379077911376953,49.188331604003906,-15.28393830948507,-13.155719572411327,-31,-286,416,11,9,9,13,
20,38,-225,-75,715,753.3093872070312,18.348955154418945,71.56185150146484,-17.378462336069283,-5.713873608431418,-83,-154,1934,10,12,10,10,
21,30,-198,-151,762,801.6539306640625,18.094345092773438,52.6661491394043,-14.29943017872973,-10.857125218764468,-107,-99,273,6,6,7,5,
22,30,-212,-108,735,772.5496826171875,17.934986114501953,63.000709533691406,-15.9272152594046,-8.036090182915629,-35,-243,-358,8,8,5,7,
23,30,-222,-96,718,757.6437377929688,18.61467170715332,66.61143493652344,-17.038469194159575,-7.279437937955533,-63,-23,-461,7,6,6,5,
24,30,-204,-125,743,780.5703125,17.846771240234375,58.498741149902344,-15.150025630796929,-9.214983109293648,-111,-414,-614,10,7,10,8,
25,23,-214,-98,719,756.54541015625,18.124269485473633,65.39149475097656,-16.431253744486245,-7.442790301256192,-69,-216,-357,9,8,11,8,
26,23,-225,-70,750,786.1456909179688,17.439706802368164,72.71533203125,-16.630980534924657,-5.108497781414142,-176,-111,1015,9,11,10,8,
27,23,-211,-94,769,802.943359375,16.716997146606445,65.98377990722656,-15.23527027909949,-6.7229925198661675,-246,46,395,9,9,7,7,
28,23,-199,-142,787,824.0958862304688,17.254413604736328,54.48585891723633,-13.973716315809629,-9.922157470215076,124,28,1182,10,7,11,14,
29,23,-224,-118,743,784.9515991210938,18.814617156982422,62.2169075012207,-16.580841970151805,-8.64592014100121,-29,-376,564,10,8,12,10,
30,28,-232,-77,708,749.0106811523438,19.045669555664062,71.63597106933594,-18.043677571719883,-5.900560777178327,-38,-189,-567,8,6,8,7,
31,28,-228,-69,740,777.3963012695312,17.841663360595703,73.15937805175781,-17.054829262336703,-5.09214938610714,-181,82,-461,6,7,8,6,
32,28,-201,-135,790,826.2723388671875,17.037691116333008,56.10939025878906,-14.079099030161524,-9.403392946500349,-193,361,-400,8,7,9,9,
33,28,-240,-149,768,818.30615234375,20.192792892456055,58.16301345825195,-17.054951963738077,-10.491137603305344,-170,52,133,7,7,8,8,
34,28,-241,-115,721,768.86083984375,20.32071876525879,64.48712158203125,-18.267311611054126,-8.602120054403875,-66,96,362,8,9,7,8,
35,35,-225,-69,723,760.3387451171875,18.028364181518555,72.94781494140625,-17.212756967398782,-5.206699452340897,-44,-27,504,7,7,9,8,
36,35,-222,-120,710,753.514404296875,19.56477928161621,61.60348129272461,-17.134718726849727,-9.163583941417391,-145,-245,967,8,8,7,7,
37,35,-240,-138,768,816.3749389648438,19.821014404296875,60.09756088256836,-17.09653819619153,-9.732006229250947,-179,-31,-682,8,12,11,10,
38,35,-225,-126,762,804.4532470703125,18.694866180419922,60.74766159057617,-16.24188749444582,-9.011234302620679,-90,-95,-500,11,12,12,14,
39,35,-222,-51,701,737.079345703125,17.998918533325195,77.05890655517578,-17.529015005445164,-3.9675800218932697,78,78,-198,11,12,11,13,
40,36,-240,-111,672,722.1530151367188,21.477157592773438,65.17607879638672,-19.410837196612118,-8.84181612970887,195,22,-263,11,13,10,9,
41,36,-238,-129,684,735.6228637695312,21.590543746948242,61.5380744934082,-18.876863106301315,-10.099701463045463,-46,-559,1244,9,9,13,13,
42,36,-213,-100,677,716.727294921875,19.163923263549805,64.84732055664062,-17.288555828956564,-8.020250034613685,-14,-415,713,9,14,13,13,
43,36,-231,-88,751,790.636474609375,18.21702003479004,69.14227294921875,-16.987896388809787,-6.390418007462442,-51,-226,465,7,9,10,9,
44,36,-241,-90,780,821.3287963867188,18.25128173828125,69.5188980102539,-17.063233980602124,-6.291020059284686,-249,185,-327,8,8,11,7,
45,36,-217,-105,694,734.6768188476562,19.153139114379883,64.17559051513672,-17.17960418289761,-8.216848842095299,-57,-314,-242,7,7,7,6,
46,36,-204,-87,726,759.1185913085938,16.98459815979004,66.89984130859375,-15.588870416056718,-6.580935014812633,-126,-2,-479,5,6,6,7,
47,36,-227,-66,704,742.631103515625,18.55971336364746,73.7851333618164,-17.798472504174317,-5.098786030415161,-57,-184,549,8,9,8,7,
48,36,-236,-110,779,821.3629150390625,18.479825973510742,65.00630187988281,-16.69801414893315,-7.696390280305443,-119,-35,1066,10,7,11,11,
49,36,-226,-139,767,811.5947265625,19.07968521118164,58.40306091308594,-16.168559130713305,-9.861536701230827,61,104,268,8,9,11,9,
50,43,-206,-102,741,775.835693359375,17.232542037963867,63.654457092285156,-15.397862040021097,-7.554612057379183,-104,-29,378,5,5,7,9,
51,43,-230,-145,675,727.7018432617188,21.93767738342285,57.767642974853516,-18.425028464135668,-11.493538700257721,-24,-433,165,12,8,11,13,
52,43,-240,-100,711,757.0475463867188,20.084503173828125,67.37681579589844,-18.482865085024176,-7.590503445704306,62,117,-803,10,9,11,8,
53,43,-226,-92,736,775.3941040039062,18.33993911743164,67.84645080566406,-16.945665312177802,-6.814158760376705,-24,225,65,7,9,9,12,
54,43,-208,-154,824,863.6874389648438,17.43450927734375,53.4805908203125,-13.935406556343857,-10.271060577346956,-105,-137,-451,10,9,11,9,
55,45,-236,-144,724,774.989013671875,20.897592544555664,58.606143951416016,-17.729314679265105,-10.708307240713609,-61,-299,-147,7,7,9,9,
56,45,-268,-111,712,768.8231201171875,22.164588928222656,67.49836730957031,-20.400775131034933,-8.301175951786945,208,115,744,9,6,9,9,
57,45,-246,-146,729,783.1174926757812,21.423246383666992,59.30748748779297,-18.308247008729047,-10.744769635069693,550,424,-351,12,9,13,11,
58,45,-212,-82,714,749.3090209960938,17.65703773498535,68.85063171386719,-16.434994963743343,-6.282698207517296,-124,-118,194,6,8,9,8,
59,45,-209,-84,723,757.275390625,17.302143096923828,68.10081481933594,-16.02098638107882,-6.368581770300833,-177,-174,724,5,5,6,6,
60,43,-206,-52,737,767.0130615234375,16.078990936279297,75.82987213134766,-15.57944779755273,-3.887375361786041,-54,241,-314,12,8,8,8,
61,43,-222,-82,709,747.4550170898438,18.456602096557617,69.72406005859375,-17.277975409610406,-6.298344911529095,-8,-55,72,9,8,8,8,
62,43,-220,-174,717,769.912353515625,21.363555908203125,51.65541458129883,-16.603494713040238,-13.06167441904082,-36,-435,748,11,8,10,9,
63,43,-187,-86,698,727.7149047851562,16.427661895751953,65.29924011230469,-14.89027482346833,-6.786969875669001,-254,6,307,9,7,10,8,
64,43,-216,-129,766,806.2586669921875,18.180395126342773,59.14984130859375,-15.539586853437946,-9.206796661924962,-221,-366,252,8,7,8,10,
65,45,-205,-76,762,792.7452392578125,16.007156372070312,69.65541076660156,-14.986714270698934,-5.501360473881049,-364,100,352,9,7,12,9,
66,45,-201,-182,801,845.6512451171875,18.699907302856445,47.83612060546875,-13.750044166825129,-12.428361177800113,-400,-406,-497,10,8,10,9,
67,45,-222,-119,815,853.0357666015625,17.172073364257812,61.8036003112793,-15.084719012717427,-8.019017011634466,-293,14,-1198,8,8,10,12,
68,45,-220,-126,780,820.1682739257812,18.003835678100586,60.19552230834961,-15.559422850880487,-8.83717602811924,-120,-95,531,5,6,8,10,
69,45,-246,-104,771,815.9491577148438,19.10439682006836,67.07977294921875,-17.54708067914164,-7.322777846571243,17,-258,291,8,8,10,10,
70,45,-236,-103,737,780.6881713867188,19.25661849975586,66.4182357788086,-17.595642644254987,-7.581416082314269,-113,270,768,11,6,8,11,
71,45,-227,-193,807,860.2482299804688,20.26283836364746,49.624290466308594,-15.300254002188943,-12.964885130806081,91,165,-266,12,8,9,8,
72,45,-232,-73,696,737.2713012695312,19.2596378326416,72.53038024902344,-18.34112514279454,-5.682380797290492,-94,91,-574,8,13,8,8,
73,45,-242,-91,718,763.1310424804688,19.801328659057617,69.3888168334961,-18.488517740789668,-6.848564513503041,44,-82,174,5,7,9,10,
74,49,-257,-158,717,777.8829956054688,22.81734275817871,58.41379928588867,-19.292076167915415,-11.719196923602848,228,-259,27,7,5,10,13,
75,49,-214,-99,714,751.9262084960938,18.273082733154297,65.1705551147461,-16.53508365864169,-7.565635321538244,-15,-114,555,7,7,7,9,
76,49,-209,-84,691,726.7860717773438,18.05255126953125,68.10081481933594,-16.712377187566442,-6.636926135467784,-35,-478,-251,10,8,8,8,
77,49,-236,-69,693,735.3271484375,19.532873153686523,73.69937133789062,-18.72011961511675,-5.384315932635751,2,98,-194,14,8,7,8,
78,49,-254,-92,675,727.05224609375,21.81023597717285,70.08612823486328,-20.447924204817006,-7.269602686710725,216,111,459,11,7,8,10,
79,51,-239,-124,702,751.864990234375,20.982316970825195,62.57497024536133,-18.534535486970938,-9.49277425504789,277,-230,-617,7,9,9,10,
80,51,-213,-84,684,721.3050537109375,18.505563735961914,68.47411346435547,-17.175412288609383,-6.687587798922639,10,-132,946,7,8,10,10,
81,51,-213,-64,737,769.8272705078125,16.790281295776367,73.27293395996094,-16.06248118970329,-4.768819332755525,-168,-109,77,13,7,7,8,
82,51,-214,-96,749,784.8649291992188,17.385597229003906,65.83572387695312,-15.822516805531519,-7.0256710183723765,-78,-8,114,6,5,5,5,
83,51,-222,-150,753,799.2452392578125,19.584020614624023,55.95040512084961,-16.126681837515143,-10.81725084576698,-110,-7,388,7,6,5,5,
84,58,-226,-216,792,851.4669799804688,21.53830337524414,46.292110443115234,-15.39216459230631,-14.695373232601767,-73,-101,-453,11,6,8,7,
85,58,-226,-87,726,765.3240966796875,18.444717407226562,68.94222259521484,-17.17551102027937,-6.5273412093475995,-195,-133,720,9,7,9,10,
86,58,-180,-64,736,760.389404296875,14.548601150512695,70.42364501953125,-13.693081258749194,-4.828149090238046,-489,-130,253,9,7,10,13,
87,58,-209,-109,759,794.7597045898438,17.2506160736084,62.453102111816406,-15.246517012265056,-7.882868192710284,-256,25,426,8,4,5,8,
88,58,-213,-187,808,856.2721557617188,19.328351974487305,48.71512222290039,-14.403714984715243,-12.614400074717791,-144,78,-656,9,8,12,11,
89,54,-240,-119,778,822.8274536132812,18.997610092163086,63.62281799316406,-16.958393923521495,-8.315464529179309,-214,-454,-432,11,9,11,10,
90,54,-218,-101,700,740.08447265625,18.941608428955078,65.13818359375,-17.13121350359823,-7.843684169098205,-153,-109,671,11,10,13,11,
91,54,-250,-135,723,776.822998046875,21.45159912109375,61.627471923828125,-18.773245951961748,-10.00794629089655,62,-136,-814,8,10,10,8,
92,54,-224,-162,779,826.5960083007812,19.53603744506836,54.12129592895508,-15.723239486065863,-11.302240367388968,-60,-598,135,10,11,7,8,
93,54,-240,-124,727,775.5675048828125,20.382144927978516,62.67265701293945,-18.02613674934494,-9.200100396630596,79,83,-37,7,8,9,11,
94,59,-217,-85,736,772.016845703125,17.568201065063477,68.60618591308594,-16.324789581567174,-6.321150798997346,-213,21,-399,7,9,11,11,
95,59,-212,-150,783,824.9442138671875,18.347166061401367,54.715087890625,-14.891360110277281,-10.476397764221339,-190,279,1025,6,8,10,10,
96,59,-240,-99,717,762.554931640625,19.902637481689453,67.58053588867188,-18.34460129906995,-7.459578975834618,213,-48,351,8,8,10,10,
97,59,-202,-135,705,745.6903076171875,19.01300621032715,56.240875244140625,-15.717230611237397,-10.430360759669428,63,-608,-117,6,6,8,8,
98,59,-233,-85,740,780.4575805664062,18.5271053314209,69.95443725585938,-17.37010250204832,-6.252512798264773,126,-85,-132,10,7,7,9,
99,66,-220,-100,728,767.0619506835938,18.36156463623047,65.55267333984375,-16.666990995383905,-7.490833329001268,-21,249,-773,14,9,8,7,
100,66,-211,-173,779,825.403564453125,19.30141258239746,50.647674560546875,-14.811069135040647,-12.098587008799942,33,-485,181,7,10,7,9,
101,66,-220,-103,713,753.2449951171875,18.81177520751953,64.90846252441406,-16.981903833493217,-7.8593461092748145,-29,-346,1091,8,10,11,12,
102,66,-259,-94,750,799.010009765625,20.169952392578125,70.04918670654297,-18.914154515404583,-6.7562419719497075,242,-481,-134,10,7,9,10,
103,66,-237,-82,746,787.025390625,18.579126358032227,70.9115982055664,-17.52571807828065,-5.980488002305954,153,-54,861,8,11,7,9,
104,70,-236,-151,747,797.813232421875,20.557233810424805,57.3840217590332,-17.206029096291246,-10.910030548965256,-94,-300,237,6,7,7,8,
105,70,-237,-135,752,799.9362182617188,19.93379020690918,60.329750061035156,-17.2339243361326,-9.715931148185307,-132,-137,-877,5,10,6,6,
106,70,-243,-113,738,785.1509399414062,19.955333709716797,65.05720520019531,-18.02877719996413,-8.274823176962693,80,-243,-664,10,9,7,11,
107,70,-239,-87,690,735.38427734375,20.23243522644043,69.9944076538086,-18.96558468374627,-6.794318107161518,117,72,642,10,8,8,8,
108,75,-252,-143,711,767.7720947265625,22.16985511779785,60.423274993896484,-19.160917726285568,-10.73420463781088,355,-261,136,8,9,10,10,
109,75,-195,-122,763,796.9177856445312,16.774181365966797,57.96460723876953,-14.163676120076467,-8.806028519790386,-180,-142,107,7,7,9,11,
110,75,-204,-123,770,806.0055541992188,17.18815803527832,58.90892028808594,-14.661029386465977,-8.777885755936898,-167,11,1347,9,11,14,9,
111,75,-195,-114,732,766.05810546875,17.146867752075195,59.685237884521484,-14.746915432316692,-8.558189612099559,-222,-162,-705,11,9,8,7,
112,75,-237,-109,721,766.740478515625,19.888484954833984,65.29817962646484,-18.005040787817784,-8.172868308027263,-154,-173,114,6,13,9,9,
113,77,-233,-117,709,755.4197387695312,20.188310623168945,63.33323669433594,-17.965109780970764,-8.909881933257084,7,-132,-1375,9,9,8,8,
114,77,-173,-102,711,738.8193359375,15.770797729492188,59.47304153442383,-13.54195856605562,-7.93549297774168,14,-531,-1111,10,9,9,7,
115,77,-219,-68,732,767.0782470703125,17.392107009887695,72.74714660644531,-16.588673407236517,-5.0858360224720265,-145,-154,1759,7,9,11,11,
116,77,-227,-142,761,806.73046875,19.38218116760254,57.96833419799805,-16.342746727844172,-10.137971353307906,123,40,414,12,10,10,10,
117,77,-221,-189,806,856.8535766601562,19.8367862701416,49.45896530151367,-14.946701090133814,-12.74277545534132,-6,-327,942,17,14,15,12,
118,77,-246,-152,765,817.8294677734375,20.704627990722656,58.28506088256836,-17.50543180859239,-10.711149440901597,15,157,192,16,15,14,17,
119,77,-248,-75,704,750.163330078125,20.20303726196289,73.17051696777344,-19.304874010269188,-5.737916827343804,160,7,-531,9,13,13,12,
120,77,-226,-104,727,768.3885498046875,18.888965606689453,65.28581237792969,-17.10489736926776,-7.778754304992367,94,-80,-848,11,17,14,12,
121,77,-235,-162,703,758.7344970703125,22.095827102661133,55.415435791015625,-18.042735177701715,-12.328328137267446,164,-597,-754,11,12,13,10,
122,77,-205,-101,713,748.7289428710938,17.769512176513672,63.76789855957031,-15.890357297805442,-7.7525646617789405,147,-151,40,11,14,15,14,
123,82,-222,-71,772,806.4173583984375,16.797616958618164,72.26151275634766,-15.979397364462297,-5.0510746524555055,-50,-304,1128,10,11,17,18,
124,82,-234,-147,757,805.8622436523438,20.05250358581543,57.85914611816406,-16.880240361952254,-10.510359641730057,135,-224,1097,12,11,13,15,
125,82,-206,-161,770,813.1771240234375,18.752700805664062,51.98670196533203,-14.674495330248787,-11.41937708184272,27,16,-187,6,9,8,9,
126,82,-216,-76,734,768.8875122070312,17.323808670043945,70.61225891113281,-16.31544083999254,-5.672612980074287,-44,-152,-727,8,9,12,10,
127,82,-223,-77,696,734.8972778320312,18.722742080688477,70.94742584228516,-17.66456196438506,-6.014292748956628,-45,-127,-147,10,11,8,10,
128,83,-227,-123,701,747.033447265625,20.216964721679688,61.54545211791992,-17.69010802793975,-9.47697594065315,43,-256,-690,10,11,10,9,
129,83,-204,-130,714,753.8646850585938,18.714107513427734,57.48885726928711,-15.700305801557793,-9.92999163765004,16,-349,461,10,11,7,9,
130,83,-216,-86,735,770.8936157226562,17.550756454467773,68.28681945800781,-16.27180123985624,-6.405183672913268,-14,-116,549,8,10,11,11,
131,83,-215,-93,734,770.473876953125,17.698060989379883,66.60536193847656,-16.203456914555847,-6.932788142821445,-68,-150,778,9,8,9,8,
132,83,-233,-135,792,836.52734375,18.77621078491211,59.90849304199219,-16.172635463549902,-9.287089888786719,-67,115,1053,9,7,10,12,
133,88,-210,-145,770,811.1873779296875,18.334291458129883,55.37217330932617,-15.003601470833424,-10.296977400100552,16,-21,-844,8,8,8,8,
134,88,-224,-92,723,762.4755859375,18.515316009521484,67.66802978515625,-17.08438943527375,-6.930171660559541,81,-361,-775,7,8,9,12,
135,88,-237,-90,723,766.157958984375,19.320661544799805,69.20262145996094,-18.01920087324598,-6.746068243268433,46,87,-364,6,9,9,7,
136,88,-236,-115,714,760.7344970703125,20.18572998046875,64.01715087890625,-18.07288051867812,-8.694717837799427,-14,-404,-188,10,9,7,8,
137,88,-231,-179,796,847.9492797851562,20.157684326171875,52.22441482543945,-15.808438000023413,-12.186677993253246,-163,72,1635,11,13,16,15,
138,91,-213,-130,741,781.8887329101562,18.609249114990234,58.59950256347656,-15.808159597160037,-9.570674436154333,13,-16,198,8,11,10,9,
139,91,-237,-196,775,833.7925415039062,21.64286994934082,50.405277252197266,-16.513626382992467,-13.595776470568305,57,-606,219,13,10,10,9,
140,91,-223,-121,756,797.4371337890625,18.549564361572266,61.512203216552734,-16.239069957078556,-8.72754934339517,-20,552,473,5,8,8,9,
141,91,-225,-106,696,739.1055297851562,19.662500381469727,64.77095031738281,-17.723394500526947,-8.245598451370704,-37,-518,-213,7,9,8,8,
142,91,-207,-58,739,769.6323852539062,16.217321395874023,74.34436798095703,-15.602365060290774,-4.321944941600563,-70,218,-465,12,13,12,13,
143,96,-193,-86,751,780.1576538085938,15.71174144744873,65.97908782958984,-14.32287628734187,-6.328812108186437,-131,-400,-995,11,11,10,9,
144,96,-208,-155,782,823.9010620117188,18.34935188293457,53.303070068359375,-14.622981549539253,-10.843637002223256,21,37,317,9,14,17,22,
145,96,-222,-96,735,773.773193359375,18.212799072265625,66.61143493652344,-16.672799179190502,-7.126900126344421,-27,-163,1469,11,14,15,16,
146,96,-242,-117,744,791.0682373046875,19.86217498779297,64.19416809082031,-17.813247715291357,-8.505321537809914,19,239,582,12,12,13,14,
147,96,-219,-89,732,769.2243041992188,17.895336151123047,67.8802261352539,-16.541060433248965,-6.644057874489611,23,-655,-10,10,9,10,9,
148,96,-213,-84,730,765.0653686523438,17.411928176879883,68.47411346435547,-16.165187505546907,-6.303471922769442,-62,-130,-908,13,16,16,18,
149,96,-233,-129,743,789.2901611328125,19.71803855895996,61.02546691894531,-17.16964738289721,-9.406506011779385,-77,-257,-563,10,13,12,14,
150,96,-255,-119,734,786.0928955078125,20.973731994628906,64.97972106933594,-18.92857110640782,-8.707001053294393,93,-278,-139,7,13,11,11,
151,96,-226,-91,716,756.3154296875,18.78976821899414,68.06427764892578,-17.38657103894292,-6.910580948175173,25,-123,358,9,12,10,12,
152,96,-224,-108,705,747.57275390625,19.427324295043945,64.25588989257812,-17.43576544073224,-8.306447253552829,-34,-169,1082,14,12,12,13,
153,99,-237,-116,699,747.145263671875,20.678979873657227,63.91707229614258,-18.494124313693543,-8.931738386549824,184,88,754,14,11,12,12,
154,99,-221,-142,737,782.4154663085938,19.615453720092773,57.27425765991211,-16.406997806018964,-10.45651638683906,83,-260,668,9,11,14,16,
155,99,-210,-94,714,750.1546630859375,17.858806610107422,65.88243865966797,-16.256759569154354,-7.198513559238386,24,-41,-384,14,14,15,15,
156,99,-220,-68,733,768.3182983398438,17.437788009643555,72.82093811035156,-16.63894323595246,-5.077605876764052,26,-126,-1073,14,23,19,17,
157,99,-253,-122,698,752.3941650390625,21.918107986450195,64.25259399414062,-19.649170738638933,-9.331656736683541,-11,-153,-381,15,14,17,16,
158,101,-229,-97,737,777.8296508789062,18.644580841064453,67.04008483886719,-17.122097488180234,-7.163775956897688,21,-238,1250,12,14,14,15,
159,101,-221,-84,747,783.5215454101562,17.560441970825195,69.18540954589844,-16.38318402239387,-6.154410262294722,-45,-120,626,10,8,11,11,
160,101,-212,-66,736,768.7626342773438,16.785314559936523,72.70439147949219,-16.007776599141593,-4.925034162544792,-96,-378,425,8,12,9,9,
161,101,-223,-153,755,801.9744262695312,19.705402374267578,55.5423583984375,-16.1446757207141,-10.998257861648938,-66,-463,151,5,9,8,8,
162,101,-210,-138,690,734.3323364257812,20.008583068847656,56.685726165771484,-16.617081343351167,-10.83176139322201,-93,-640,-379,6,10,9,8,
163,106,-213,-81,750,783.8558349609375,16.89883041381836,69.17584228515625,-15.767454268996158,-5.931266015228696,-59,-176,45,8,14,9,10,
164,106,-216,-65,748,781.2714233398438,16.77914047241211,73.24894714355469,-16.049780428903276,-4.772394761194864,-144,-511,921,7,12,6,9,
165,106,-221,-76,735,771.260009765625,17.636600494384766,71.01913452148438,-16.65116861448416,-5.655106282017373,-58,-446,-416,8,10,10,6,
166,106,-218,-182,741,793.5546875,20.967132568359375,50.13893127441406,-15.944927972851325,-13.25867589517736,133,796,1377,6,10,9,13,
167,108,-183,-156,786,821.961669921875,17.008777618408203,49.54991912841797,-12.864029694988838,-10.940521509874262,125,168,-529,6,8,12,12,
168,108,-198,-48,747,774.2848510742188,15.253477096557617,76.36994934082031,-14.816243751398472,-3.5541985366580517,-104,278,909,7,7,11,11,
169,108,-225,-30,740,774.0316772460938,17.050975799560547,82.40248107910156,-16.89901752600967,-2.2212321881281993,-65,-500,3,9,8,12,10,
170,108,-214,-101,752,788.3533325195312,17.465431213378906,64.73103332519531,-15.750680583133189,-7.360687053343262,45,156,-324,6,8,9,7,
171,108,-245,-156,762,815.4783935546875,20.863182067871094,57.51005554199219,-17.483861062942083,-11.028587744602282,-7,256,267,15,12,11,11,
172,112,-216,-166,770,816.7692260742188,19.48122215270996,52.453285217285156,-15.334665110669953,-11.72647669264765,-51,-117,-500,13,11,13,9,
173,112,-222,-93,750,787.6757202148438,17.790531158447266,67.2669448852539,-16.370164770706754,-6.780666176696687,-101,-113,240,10,8,10,7,
174,112,-219,-204,705,765.8994750976562,23.0007381439209,47.02699279785156,-16.61494400855183,-15.447393134938293,-39,-285,-3,23,10,15,11,
175,112,-226,-90,693,734.45556640625,19.3403263092041,68.28276824951172,-17.921333723861736,-7.03870128477294,-66,-539,409,8,8,10,5,
176,112,-213,-53,729,761.3271484375,16.75438117980957,76.02400207519531,-16.246753108948834,-3.9918903760318707,-11,8,887,7,8,9,9,
177,117,-231,-51,717,755.0172119140625,18.257373809814453,77.54698181152344,-17.815525146430186,-3.87317187292698,39,-69,-894,8,12,10,8,
178,117,-218,-127,743,784.6668090820312,18.75349235534668,59.77272033691406,-16.130432451364328,-9.314417268971043,15,-326,-563,5,9,7,7,
179,117,-224,-102,718,759.01513671875,18.919593811035156,65.51414489746094,-17.16468966478395,-7.723039802935587,-100,-337,34,7,7,6,8,
180,117,-208,-97,755,789.1121826171875,16.906145095825195,64.99479675292969,-15.283031077583628,-7.060824935924228,-76,-240,389,6,6,7,8,
181,117,-216,-117,755,793.9584350585938,18.02106285095215,61.55358123779297,-15.786560794873461,-8.474132240545082,5,-127,495,6,9,7,6,
182,121,-228,-125,747,790.960205078125,19.19000244140625,61.26293182373047,-16.75364846027314,-9.092903603622181,61,103,-32,10,7,7,6,
183,121,-261,-129,728,784.057373046875,21.795270919799805,63.69554901123047,-19.443903772847257,-9.46986093952657,133,92,5,5,10,7,5,
184,121,-230,-129,741,786.5252685546875,19.587495803833008,60.709739685058594,-17.0032196540408,-9.439875185196916,-18,-411,82,6,9,8,6,
185,121,-217,-79,746,780.9263916015625,17.198362350463867,69.9924545288086,-16.133425348002394,-5.806082083485436,-4,-96,-192,5,8,6,8,
186,121,-204,-76,729,760.8107299804688,16.624732971191406,69.56391143798828,-15.553319285699036,-5.733034073052389,-40,-90,428,6,8,8,5,
187,123,-232,-130,743,789.15966796875,19.691591262817383,60.732608795166016,-17.096599317915167,-9.481677030881329,6,233,625,6,6,7,9,
188,123,-209,-143,755,796.3385009765625,18.540164947509766,55.615989685058594,-15.21555798771049,-10.344823966572173,54,-69,-280,7,12,9,8,
189,123,-204,-78,702,735.1897583007812,17.27959632873535,69.07222747802734,-16.109823512159096,-6.090261082559094,35,-110,-48,9,9,12,13,
190,123,-226,-77,716,754.7589111328125,18.439355850219727,71.18240356445312,-17.423573078515403,-5.855464567821643,75,-52,368,12,9,14,13,
191,123,-220,-132,732,775.6597290039062,19.313188552856445,59.03267288208008,-16.476946286330666,-9.798152041950244,-58,-681,-35,14,14,10,11,
192,124,-213,-177,759,807.9473876953125,20.04395866394043,50.27006149291992,-15.285623867285175,-12.654630873418263,-149,-107,181,11,10,9,12,
193,124,-225,-123,711,755.8273315429688,19.83000373840332,61.33253479003906,-17.3187334346029,-9.365714579479503,46,-254,507,8,7,10,10,
194,124,-218,-88,728,765.0176391601562,17.89458465576172,68.0142593383789,-16.556502251937083,-6.6053569192927,-18,-171,366,8,12,12,14,
195,124,-220,-125,714,757.509765625,19.51153564453125,60.39201736450195,-16.883420432498053,-9.498069877532481,-42,-225,86,6,7,10,7,
196,124,-220,-111,729,769.5206298828125,18.674158096313477,63.223541259765625,-16.612191249236776,-8.293598638767918,-50,-279,101,7,6,7,6,
197,128,-217,-91,731,767.939453125,17.841197967529297,67.24569702148438,-16.413910913345774,-6.805479238904919,-46,-240,115,10,8,7,11,
198,128,-231,-72,742,780.454345703125,18.058643341064453,72.68518829345703,-17.21639784406057,-5.2932887282430645,156,-88,237,7,5,6,7,
199,128,-220,-141,744,788.5537109375,19.350120544433594,57.3401985168457,-16.200039349607525,-10.300357774567981,79,-110,758,8,10,11,15,
200,128,-216,-123,741,781.5791625976562,18.541744232177734,60.33736038208008,-16.043289770349972,-9.054488671770454,-231,-338,77,6,9,7,8,
201,128,-219,-96,731,769.1150512695312,18.111299514770508,66.32611083984375,-16.543476659698307,-7.17029026959986,-27,-230,-36,8,7,6,7,
202,134,-231,-75,739,777.88623046875,18.190845489501953,72.00948333740234,-17.275020190223596,-5.532774507328829,16,-137,-15,6,6,6,8,
203,134,-217,-118,760,799.1326293945312,18.002586364746094,61.46009826660156,-15.756188537393422,-8.491349628269344,4,-199,103,10,6,8,6,
204,134,-217,-153,759,804.1013793945312,19.278852462768555,54.8098258972168,-15.656321489866396,-10.968805254418795,105,-111,-220,6,9,9,8,
205,134,-255,-107,708,760.0907592773438,21.333208084106445,67.23336791992188,-19.60210871671838,-8.09255909161623,219,-232,117,9,7,10,10,
206,135,-270,-88,724,777.7017211914062,21.414878845214844,71.9446792602539,-20.314732318480615,-6.4971573561387235,100,-319,923,12,11,10,11,
207,135,-213,-109,729,767.2620239257812,18.16856575012207,62.89603805541992,-16.11764416132539,-8.167275224679575,-34,-238,403,7,8,7,9,
208,135,-192,-125,758,791.8667602539062,16.81523323059082,56.930564880371094,-14.032074001098241,-9.082405032566102,-15,5,-98,9,11,11,13,
209,135,-194,-227,811,864.2256469726562,20.21133041381836,40.5139274597168,-12.972208485170512,-15.228126730080051,16,-103,-466,16,11,13,11,
210,135,-244,-97,718,764.5057373046875,20.085487365722656,68.31686401367188,-18.612160817647357,-7.28929967088915,102,68,-78,13,13,10,11,
211,141,-215,-113,749,787.3975830078125,17.964794158935547,62.27095031738281,-15.845922379259859,-8.251047910431714,-268,-66,590,8,14,9,7,
212,141,-217,-143,724,769.2294921875,19.74359130859375,56.61202621459961,-16.385607469869658,-10.713626977121798,-42,-110,335,10,13,14,10,
213,141,-243,-93,721,766.5109252929688,19.840999603271484,69.0540771484375,-18.48285816076522,-6.968808830883712,-154,-183,1673,10,13,13,11,
214,141,-230,-81,722,762.0662841796875,18.659635543823242,70.59583282470703,-17.566409836137737,-6.101492261384951,-11,-188,672,9,6,8,8,
215,141,-230,-62,735,772.6376953125,17.955135345458984,74.9105453491211,-17.318405884492627,-4.602625308061233,38,-19,-891,7,7,8,6,
216,142,-222,-135,729,773.9185791015625,19.614641189575195,58.69230270385742,-16.66957577948587,-10.045893736632156,-6,-102,-692,9,14,11,8,
217,142,-228,-138,720,767.7421264648438,20.31017303466797,58.81145095825195,-17.275987426061228,-10.355073147089183,-96,-341,-416,7,16,10,11,
218,142,-214,-90,718,754.5992431640625,17.915752410888672,67.18696594238281,-16.474838216788843,-6.849893766728239,-100,-67,90,9,9,9,8,
219,142,-219,-68,741,775.6713256835938,17.193363189697266,72.74714660644531,-16.399678828443633,-5.029347763349177,-130,-61,445,7,10,10,12,
220,142,-227,-117,763,804.6036376953125,18.50342559814453,62.729129791259766,-16.38716152873493,-8.361208243745017,-104,4,1092,8,6,8,10,
221,146,-216,-148,765,808.5697021484375,18.892648696899414,55.57795715332031,-15.494054021527404,-10.546838106912364,23,-74,1068,7,9,8,8,
222,146,-201,-105,739,773.0116577148438,17.057247161865234,62.41449737548828,-15.071364986793602,-7.806754294936032,46,-18,129,8,12,9,8,
223,146,-219,-95,762,798.5173950195312,17.392454147338867,66.54593658447266,-15.917817220610276,-6.832690114269199,80,-278,-896,8,9,8,11,
224,146,-228,-89,741,780.3755493164062,18.276458740234375,68.67349243164062,-16.987737045824566,-6.548698191193013,-7,-175,-1153,11,9,14,11,
225,146,-218,-177,793,841.250244140625,19.497390747070312,50.922119140625,-15.018926625660622,-12.145860145261544,-53,-105,645,9,12,10,12,
226,148,-220,-112,773,811.4635009765625,17.70948028564453,63.01632308959961,-15.730632130292944,-7.933417283806167,234,-99,525,10,9,10,11,
227,148,-218,-72,699,735.737060546875,18.180326461791992,71.71969604492188,-17.235598227264113,-5.616013495932461,48,-48,873,9,8,11,14,
228,148,-189,-76,699,728.0783081054688,16.245420455932617,68.09082794189453,-15.045585333869397,-5.991699135923263,-244,37,664,11,10,10,12,
229,148,-208,-123,734,772.754150390625,18.220386505126953,59.398658752441406,-15.614710646953304,-9.158777385279791,-123,-210,165,11,11,8,7,
230,148,-216,-90,716,753.267578125,18.096080780029297,67.37681579589844,-16.663525044090218,-6.862061702357231,94,-209,-283,7,9,8,6,
231,155,-186,-88,720,748.8257446289062,15.947075843811035,64.67691040039062,-14.382195757820597,-6.748842004890408,-190,-131,-263,8,13,9,6,
232,155,-184,-92,757,784.45458984375,15.201026916503906,63.431514739990234,-13.56556237718444,-6.735088160912205,-192,100,-277,7,18,8,8,
233,155,-227,-118,702,747.1659545898438,20.021766662597656,62.530052185058594,-17.68686700938994,-9.086772365920394,-128,-64,403,7,11,10,7,
234,155,-235,-126,739,785.634765625,19.8385066986084,61.797630310058594,-17.404826735714124,-9.228945684316356,-83,-412,828,10,10,8,8,
235,155,-222,-112,704,746.6217041015625,19.451107025146484,63.225399017333984,-17.297866715092244,-8.62744980469044,-92,-375,1681,8,8,9,9,
236,154,-219,-80,743,778.7233276367188,17.419790267944336,69.9296646118164,-16.333601247196526,-5.89652757142616,-12,21,951,11,6,11,10,
237,154,-227,-134,774,817.6558227539062,18.805130004882812,59.44272994995117,-16.118385009286314,-9.432360008228434,-7,-159,-662,10,10,9,7,
238,154,-237,-147,748,798.2994384765625,20.445598602294922,58.187015533447266,-17.27036944989887,-10.611079953149765,-120,-37,-1114,7,8,6,7,
239,154,-212,-111,739,776.7792358398438,17.940731048583984,62.360660552978516,-15.838205942570848,-8.21556093240119,-116,134,-1236,6,9,8,11,
240,154,-201,-80,700,732.6670532226562,17.171642303466797,68.29366302490234,-15.922696317173965,-6.268631444549836,-30,-243,1007,8,12,7,7,
241,159,-254,-62,724,769.7636108398438,19.854053497314453,76.27959442138672,-19.267041743542993,-4.619847540604293,99,-311,1049,9,12,10,8,
242,159,-229,-144,771,817.0789184570312,19.33180809020996,57.833858489990234,-16.276121438323745,-10.150684541011625,-64,-26,708,9,16,11,8,
243,159,-210,-147,777,818.19189453125,18.255966186523438,55.00428771972656,-14.872177794152204,-10.350215630578496,-71,122,21,7,14,9,10,
244,159,-247,-100,762,807.250244140625,19.27289581298828,67.95572662353516,-17.816951011421207,-7.115927048161986,194,-137,-548,9,12,7,10,
245,161,-206,-100,745,779.3978271484375,17.083599090576172,64.10294342041016,-15.325755369469306,-7.371608240752089,-86,-177,-866,7,7,9,7,
246,161,-213,-110,734,772.1560668945312,18.085098266601562,62.683258056640625,-16.012732710756154,-8.190119442111317,-33,-222,-567,7,7,9,10,
247,161,-193,-125,728,763.4513549804688,17.526918411254883,57.06652069091797,-14.64322448756019,-9.423473643608547,43,-307,580,6,10,11,9,
248,161,-208,-132,756,795.1251220703125,18.046539306640625,57.5965576171875,-15.164667909538293,-9.55600555474724,-113,124,1415,11,9,14,16,
249,161,-213,-110,737,775.0083618164062,18.016233444213867,62.683258056640625,-15.952225307836963,-8.159770963008757,-3,-37,553,8,15,8,7,
250,164,-213,-114,729,767.98828125,18.332931518554688,61.84033203125,-16.10198755852383,-8.53651947563039,-221,-97,366,8,10,9,6,
251,164,-221,-97,702,742.3301391601562,18.9710750579834,66.29930114746094,-17.320185088587632,-7.508289257919353,-62,-361,-6,8,7,6,7,
252,164,-214,-94,721,757.93994140625,17.959609985351562,66.28305053710938,-16.400167396908632,-7.124187244129592,-76,-278,-936,6,7,7,6,
253,164,-198,-63,756,784.0338134765625,15.365673065185547,72.3467025756836,-14.62787521605232,-4.608895475407841,-199,222,-435,6,7,8,8,
254,164,-209,-148,781,821.9160766601562,18.1525821685791,54.69269943237305,-14.731155595073849,-10.373665357372111,-39,13,6,8,8,11,8,
255,167,-219,-110,773,810.9192504882812,17.588665008544922,63.32695388793945,-15.668068556244119,-7.796122776439553,-113,-47,1441,9,13,10,11,
256,167,-204,-127,726,764.7359008789062,18.3121395111084,58.09211730957031,-15.47148475833564,-9.55942203391191,-136,-522,431,9,8,6,9,
257,167,-206,-71,728,759.9085693359375,16.66040802001953,70.97975158691406,-15.728855868931186,-5.361095618531022,-84,-26,-75,9,8,10,6,
258,167,-218,-113,765,803.4413452148438,17.793235778808594,62.59663391113281,-15.74359230621621,-8.085170719354702,-21,-217,-103,7,9,9,8,
259,167,-249,-151,759,812.9470825195312,20.98842430114746,58.76272201538086,-17.835970173707103,-10.70450888816804,-274,-187,193,6,7,7,5,
260,170,-207,-142,771,810.8353881835938,18.032203674316406,55.54657745361328,-14.790904013068152,-10.086108652944963,-236,120,-252,8,7,11,10,
261,170,-247,-99,738,784.5087890625,19.825767517089844,68.15531158447266,-18.351559824913423,-7.249690989154219,-11,-134,-972,8,10,10,7,
262,170,-234,-150,705,757.8132934570312,21.515060424804688,57.335472106933594,-17.985914480639828,-11.416400920850693,142,-222,287,9,8,10,8,
263,170,-216,-166,688,739.9702758789062,21.599443435668945,52.453285217285156,-16.971957364742575,-12.963679097777664,-118,-302,978,10,7,13,12,
264,170,-225,-117,743,785.087890625,18.84379005432129,62.52210235595703,-16.654040497433396,-8.570596151113284,10,-22,-152,8,10,9,8,
265,174,-253,-65,718,764.0405883789062,19.98988914489746,75.58828735351562,-19.337634090241277,-4.880281084283518,-24,41,661,12,9,12,9,
266,174,-258,-112,735,786.9771118164062,20.938247680664062,66.53057861328125,-19.13752565851707,-8.181926842753777,165,-368,94,7,8,8,8,
267,174,-214,-118,675,717.8753662109375,19.900192260742188,61.12407302856445,-17.34363427960023,-9.460867502347751,46,-76,-1488,7,10,12,11,
268,174,-208,-131,717,757.967041015625,18.92157554626465,57.79335403442383,-15.927350040262315,-9.952445185378382,11,-220,629,11,11,7,8,
269,174,-231,-87,705,746.9638671875,19.294479370117188,69.35919189453125,-18.014153009980244,-6.688506149114808,-99,-240,1006,10,7,10,9,
270,178,-231,-78,736,775.3328247070312,18.326278686523438,71.33890533447266,-17.33371045809341,-5.773834866099749,-26,-34,848,6,6,7,8,
271,178,-225,-104,757,796.548828125,18.128456115722656,65.18919372558594,-16.407591923170873,-7.502141518227365,7,58,-48,7,6,8,8,
272,178,-200,-102,741,774.26416015625,16.853612899780273,62.974971771240234,-14.969793571737075,-7.570035289576419,-50,53,114,7,6,9,9,
273,178,-207,-99,655,694.028076171875,19.304000854492188,64.4366226196289,-17.35305367400865,-8.200960237991653,-60,-429,-472,7,8,12,12,
274,178,-201,-75,711,742.662109375,16.788471221923828,69.53447723388672,-15.702829214465954,-5.796069800070644,-71,-180,-261,8,6,10,7,
275,178,-228,-69,767,803.1400756835938,17.251415252685547,73.15937805175781,-16.49225408035405,-4.928515496915535,-25,60,57,8,7,8,8,
276,178,-206,-192,801,849.0588989257812,19.36774253845215,47.01066589355469,-14.041319282952871,-13.069495356029142,-140,-64,717,10,8,8,11,
277,178,-237,-117,759,803.7033081054688,19.19756317138672,63.72235107421875,-17.15063796954531,-8.370641822015738,-45,57,-60,15,7,13,11,
278,178,-234,-42,762,798.2255249023438,17.325462341308594,79.821533203125,-17.046650287133208,-3.0161081039273574,47,274,171,8,9,11,15,
279,178,-214,-189,779,829.6734008789062,20.126359939575195,48.54590606689453,-14.947437747920976,-13.167610921091365,-84,-162,779,5,5,7,9,
280,182,-238,-154,737,789.6385498046875,21.036619186401367,57.09113693237305,-17.54193416639233,-11.246239265672987,85,-62,-565,13,10,10,11,
281,182,-219,-124,800,838.6519165039062,17.460676193237305,60.477508544921875,-15.137323256093637,-8.502718723046328,-157,-220,-2,9,10,10,8,
282,182,-204,-76,687,720.6670532226562,17.580263137817383,69.56391143798828,-16.44358213477517,-6.0535460597838435,-85,-51,1341,8,7,6,6,
283,182,-233,-103,756,797.7681274414062,18.620271682739258,66.1483383178711,-16.981613749765025,-7.418176947936388,15,345,-1352,9,6,10,8,
284,182,-225,-139,767,811.3168334960938,19.022863388061523,58.28956985473633,-16.10073168096451,-9.864948288260553,-46,287,-1107,11,8,7,7,
285,186,-204,-147,711,754.1525268554688,19.474105834960938,54.22021484375,-15.694159830707576,-11.240096251879606,-101,-441,1509,9,8,8,11,
286,186,-196,-120,699,735.8104248046875,18.197717666625977,58.51957702636719,-15.448549931402534,-9.386034255499798,-142,-603,-472,12,9,10,11,
287,186,-219,-75,774,807.875,16.648611068725586,71.09221649169922,-15.72863517059597,-5.326789614253179,-209,258,105,7,10,15,14,
288,186,-207,-117,732,769.6505737304688,17.993345260620117,60.520591735839844,-15.601986913312757,-8.743834999978437,-275,-24,567,9,8,8,12,
289,192,-227,-154,771,818.3434448242188,19.58258628845215,55.842811584472656,-16.104472251432664,-10.84688450357604,-79,-102,408,9,8,8,5,
290,192,-204,-108,677,715.2684936523438,18.82482147216797,62.09925842285156,-16.571257660665246,-8.68443348341306,-207,-475,-694,13,7,10,9,
291,192,-228,-49,768,802.6263427734375,16.888938903808594,77.86791229248047,-16.50311288948373,-3.500059770756906,-108,483,346,10,10,11,11,
292,192,-250,-120,765,813.7106323242188,19.92325210571289,64.35558319091797,-17.892648842142044,-8.480486662645657,109,475,857,13,11,16,15,
293,192,-206,-132,804,840.4022827148438,16.923227310180664,57.3455810546875,-14.188967094020699,-9.03673209192828,-286,187,-1032,13,9,16,19,
294,194,-229,-81,719,758.9222412109375,18.664655685424805,70.51748657226562,-17.562363026062176,-6.126865665792926,-106,-92,109,12,11,14,15,
295,194,-233,-93,720,762.4552612304688,19.20812225341797,68.23770141601562,-17.79376597314295,-7.006062953954971,-85,198,610,12,9,12,11,
296,194,-240,-105,722,768.0553588867188,19.94025993347168,66.36727142333984,-18.208598849470985,-7.85744890713624,-203,28,-1105,9,9,10,10,
297,194,-246,-101,687,736.6722412109375,21.15859603881836,67.6751480102539,-19.50773548023384,-7.88024577759035,-122,-597,934,11,9,9,15,
298,194,-195,-138,795,830.1168823242188,16.722946166992188,54.709556579589844,-13.586122270617121,-9.569372287477902,-364,84,-807,11,8,10,7,
299,197,-231,-85,694,736.3572387695312,19.526084899902344,69.79488372802734,-18.282739466753764,-6.628606207511175,7,-119,-667,16,10,12,12,
300,197,-225,-77,681,721.32861328125,19.247541427612305,71.10469818115234,-18.17524195910549,-6.127854594075292,-44,258,624,15,10,8,11,
301,197,-216,-126,717,759.3556518554688,19.224857330322266,59.74001693725586,-16.52607646527863,-9.551273289584168,-140,-183,309,11,9,11,11,
302,197,-209,-114,740,777.3525390625,17.831649780273438,61.386043548583984,-15.596517321277538,-8.432931669795563,-167,-238,715,9,8,9,9,
303,197,-201,-111,732,767.1675415039062,17.41338348388672,61.087310791015625,-15.188931543965182,-8.319217380346538,-116,-530,220,10,9,9,7,
304,199,-227,-87,742,780.8085327148438,18.13818359375,69.02690124511719,-16.901322192066996,-6.397349443935913,-224,-101,416,12,9,8,8,
305,199,-186,-167,795,833.3726806640625,17.45245361328125,48.07704162597656,-12.896435042989806,-11.559797776380554,-226,-106,-830,9,8,7,6,
306,199,-221,-102,674,716.6038208007812,19.854202270507812,65.22148895263672,-17.96278216931038,-8.18316285214001,259,-24,-700,14,7,13,10,
307,199,-195,-96,699,732.0122680664062,17.270627975463867,63.78519058227539,-15.449501862210345,-7.535782033170378,-280,-493,1413,8,8,8,9,
308,199,-248,-69,690,736.454345703125,20.457101821899414,74.4489517211914,-19.67890708935839,-5.376050494411395,121,-421,-316,14,8,12,15,
309,200,-219,-101,718,757.4205932617188,18.564502716064453,65.23806762695312,-16.80642876057379,-7.663063481479139,193,188,1194,9,8,9,10,
310,200,-182,-153,825,858.5790405273438,16.074907302856445,49.94375991821289,-12.23830209494057,-10.26501459834354,-284,-102,9,8,12,11,6,
311,200,-242,-116,743,789.9804077148438,19.857229232788086,64.3863754272461,-17.838602394371005,-8.44379135420289,20,-167,-430,11,7,7,6,
312,200,-219,-102,723,762.2952270507812,18.47479820251465,65.02269744873047,-16.695797854923423,-7.689607054479758,-85,-88,-260,9,6,9,7,
313,200,-225,-159,708,759.717041015625,21.260929107666016,54.748722076416016,-17.2272826148661,-12.08065652862017,65,-226,-365,9,9,11,9,
314,208,-228,-145,757,803.77734375,19.641319274902344,57.54145050048828,-16.47880578055442,-10.392955844234056,-162,-46,653,11,7,9,10,
315,208,-205,-108,772,806.02294921875,16.704490661621094,62.2149543762207,-14.734195559850964,-7.700291174195563,-332,30,34,9,8,12,13,
316,208,-226,-75,728,765.9536743164062,18.110151290893555,71.63794708251953,-17.160956367921973,-5.619243372475816,-269,-16,346,11,7,8,14,
317,208,-207,-140,726,767.8052978515625,18.991989135742188,55.92472457885742,-15.640441689083323,-10.50596492991793,-43,-47,312,9,6,9,6,
318,208,-247,-156,722,778.8638916015625,22.027442932128906,57.72074890136719,-18.489361550977133,-11.554019031326689,-175,-303,-288,13,7,8,8,
319,206,-214,-168,782,827.975830078125,19.181238174438477,51.862648010253906,-14.978801240612139,-11.706856146193886,2,-19,-669,9,8,13,9,
320,206,-215,-87,729,765.0065307617188,17.64661979675293,67.96592712402344,-16.322484988580115,-6.530062706575034,-67,-255,-1233,12,8,9,8,
321,206,-195,-93,738,768.9720458984375,16.314661026000977,64.4990463256836,-14.689773253784251,-6.946394874416408,-308,-131,749,11,6,10,10,
322,206,-231,-197,725,785.9993896484375,22.719606399536133,49.538143157958984,-17.09119071671253,-14.515170406947925,205,-195,-466,15,9,9,14,
323,206,-205,-88,690,725.1682739257812,17.91484260559082,66.76435089111328,-16.42099815646717,-6.970087546074676,-195,-351,1466,11,8,8,10,
324,213,-211,-62,703,736.5962524414062,17.369176864624023,73.62202453613281,-16.645704837651994,-4.8283526368542455,-40,30,1249,9,9,8,7,
325,213,-221,-111,753,792.5723876953125,18.179733276367188,63.32789611816406,-16.190917762339865,-8.050756785928805,-20,-284,-586,7,8,8,6,
326,213,-218,-126,780,819.6340942382812,17.888587951660156,59.96932601928711,-15.424738114280903,-8.84298196930139,-166,0,-484,10,6,7,7,
327,213,-207,-168,757,802.5721435546875,19.398820877075195,50.9336051940918,-14.946722360823728,-12.082914691129655,-164,-128,-729,5,7,8,5,
328,213,-245,-78,738,781.5068969726562,19.206073760986328,72.33704376220703,-18.270098118912692,-5.728067331795141,-142,26,-628,8,8,11,9,
329,213,-263,-123,766,819.1788330078125,20.75644302368164,64.9320297241211,-18.726630395234874,-8.635640216507763,250,-40,628,8,7,10,15,
330,213,-232,-91,706,748.69287109375,19.44028091430664,68.57954406738281,-18.05160096439398,-6.981287039533486,338,-138,973,15,8,12,15,
331,213,-203,-110,741,776.1378784179688,17.3043155670166,61.54449462890625,-15.162140666352121,-8.1478155648601,290,-247,703,10,10,10,10,
332,213,-200,-169,794,836.0604248046875,18.249156951904297,49.79835510253906,-13.840341443390102,-11.662040896744621,-166,-523,-536,19,6,12,7,
333,218,-245,-93,729,774.6708984375,19.77016830444336,69.21038055419922,-18.437096895543586,-6.895044753234633,154,-162,-1552,14,13,10,10,
334,218,-246,-68,747,789.3978881835938,18.861515045166016,74.54488372802734,-18.15748485487248,-4.9416748443585865,-41,-78,235,6,7,6,7,
335,218,-222,-100,733,772.3814086914062,18.37299919128418,65.74742889404297,-16.703724039826767,-7.438950448985655,-40,-240,819,7,6,9,9,
336,218,-225,-124,699,744.716064453125,20.178058624267578,61.13685607910156,-17.58549522567017,-9.584756349141152,-6,-472,211,10,8,9,10,
337,218,-216,-114,744,783.063232421875,18.17166519165039,62.172428131103516,-16.01206693856383,-8.370989688552944,-146,-270,589,9,11,7,10,
338,220,-243,-94,703,749.7293090820312,20.333770751953125,68.84869384765625,-18.91208676509458,-7.202619350704789,182,89,735,10,8,8,8,
339,220,-231,-99,710,753.16796875,19.4904842376709,66.7980728149414,-17.86073953859136,-7.5530886853435115,77,-36,-11,12,10,8,9,
340,220,-230,-129,703,750.8328857421875,20.559803009033203,60.709739685058594,-17.837986696163828,-9.893026848727034,17,-642,-74,6,6,7,7,
341,220,-225,-74,691,730.4669799804688,18.918254852294922,71.79134368896484,-17.94007577606305,-5.814326533594063,-6,-95,31,9,11,12,8,
342,220,-178,-134,735,768.0266723632812,16.861459732055664,53.02348709106445,-13.400876116413928,-10.047997411452187,-218,-330,-1181,8,6,11,9,
343,221,-226,-142,750,796.077880859375,19.58742904663086,57.85448455810547,-16.49261874195405,-10.27509370558343,17,285,328,10,8,11,7,
344,221,-214,-109,749,786.5608520507812,17.77586555480957,63.004722595214844,-15.787510220551587,-7.965567232708659,-12,12,1113,8,6,7,7,
345,221,-226,-96,731,771.137451171875,18.5651912689209,66.98191833496094,-17.04205517290043,-7.151386972079303,41,-168,673,9,7,8,7,
346,221,-229,-63,711,749.6205444335938,18.469661712646484,74.61482238769531,-17.787518420463847,-4.820968155813332,36,-345,346,12,6,8,9,
347,221,-215,-123,756,795.5438232421875,18.138853073120117,60.222896575927734,-15.679463818353621,-8.894248733711615,-153,-103,-390,12,14,13,11,
348,225,-234,-108,769,811.0369873046875,18.525821685791016,65.22148895263672,-16.769342351914297,-7.65240000345893,-96,16,-225,8,7,7,10,
349,225,-258,-127,750,803.2390747070312,20.975711822509766,63.7879524230957,-18.735482057539876,-9.097201535873536,24,98,-486,7,7,8,7,
350,225,-236,-105,740,783.7863159179688,19.239938735961914,66.01163482666016,-17.523832226467025,-7.698779935444282,19,-133,-428,9,9,10,10,
351,225,-255,-114,672,727.7396240234375,22.568628311157227,65.90918731689453,-20.511785049767074,-9.012470203675083,-30,111,1173,12,10,13,14,
352,225,-219,-98,721,759.8723754882812,18.403776168823242,65.88866424560547,-16.750600198385037,-7.41002050760947,79,-67,44,8,8,11,11,
353,229,-220,-80,751,786.6390380859375,17.310619354248047,70.0136489868164,-16.24056003698015,-5.836985202044707,-77,-309,698,5,12,8,9,
354,229,-231,-82,727,767.2118530273438,18.630443572998047,70.45301055908203,-17.523097574945453,-6.135522215995191,-214,-77,-319,10,10,13,9,
355,229,-216,-110,711,751.1837158203125,18.823333740234375,63.00865936279297,-16.71110527147052,-8.420417322123729,70,-231,-1152,9,9,7,7,
356,229,-226,-126,708,753.801025390625,20.07364273071289,60.85585403442383,-17.446423637848913,-9.62232147367716,-3,-82,-81,11,5,7,10,
357,229,-236,-141,749,797.8583984375,20.153079986572266,59.139896392822266,-17.205025683642635,-10.178946996502091,50,-511,637,11,8,8,9,
358,230,-216,-90,750,785.6564331054688,17.325777053833008,67.37681579589844,-15.957803393202068,-6.577894904491855,-139,-276,413,7,11,8,7,
359,230,-210,-85,750,783.4698486328125,16.8056697845459,67.96046447753906,-15.547573197701825,-6.228377783186313,-19,-57,586,10,8,13,12,
360,230,-230,-138,743,789.9322509765625,19.847564697265625,59.03267288208008,-16.927667904845965,-10.061114358761145,-81,125,302,5,8,7,6,
361,230,-244,-117,742,789.8031616210938,20.034421920776367,64.37849426269531,-17.995225655758695,-8.519046769467918,39,-5,-117,7,8,6,6,
362,230,-233,-84,727,768.0325317382812,18.811195373535156,70.17176055908203,-17.66027988039414,-6.2790211179586235,81,17,-1268,7,8,9,9,
363,236,-234,-115,741,785.532958984375,19.38307762145996,63.824615478515625,-17.330731667445175,-8.418209379109046,133,-101,-770,8,6,10,10,
364,236,-219,-141,719,764.72412109375,19.911359786987305,57.221500396728516,-16.641222760729466,-10.624999727001578,22,-304,552,11,6,9,9,
365,236,-222,-99,723,762.767333984375,18.580642700195312,65.96234893798828,-16.920559026534015,-7.457489832706763,-21,-218,923,8,6,7,6,
366,236,-216,-68,735,769.0936279296875,17.12172508239746,72.52205657958984,-16.310946263876147,-5.072473682507862,-43,-147,581,9,7,9,10,
367,236,-243,-226,817,881.82421875,22.10411262512207,47.071990966796875,-15.995694174423887,-14.849853253692297,-149,-627,2,30,19,19,23,
368,241,-216,-155,773,817.4411010742188,18.977611541748047,54.333351135253906,-15.321751569130024,-10.930381163919256,-48,-206,173,17,12,10,15,
369,241,-252,-108,729,778.85107421875,20.608612060546875,66.7980728149414,-18.8779628662097,-7.970648632064695,94,35,-112,7,11,8,12,
370,241,-231,-57,709,747.8576049804688,18.548786163330078,76.13591003417969,-17.99188741217653,-4.371192684048174,71,-193,-578,12,7,11,11,
371,241,-219,-138,740,783.9674682617188,19.277833938598633,57.77985763549805,-16.22131451773167,-10.138470083490416,92,-326,-332,7,7,8,8,
372,241,-219,-130,706,750.5311279296875,19.83403205871582,59.30276107788086,-16.965352042573056,-9.974546753286072,64,-500,238,8,7,7,7,
373,241,-218,-117,715,756.5963134765625,19.085147857666016,61.77418899536133,-16.746185232750523,-8.895913760139583,-75,-308,867,12,7,8,8,
374,241,-237,-87,750,791.3519897460938,18.602075576782227,69.8391342163086,-17.42682118543498,-6.3117665389818844,62,-380,615,9,8,11,11,
375,241,-228,-102,764,803.7935180664062,18.10209083557129,65.89440155029297,-16.478464748218443,-7.290391339312267,66,13,-170,10,9,12,8,
376,241,-250,-199,787,849.3939208984375,22.095800399780273,51.476417541503906,-17.117216878263296,-13.549462367593426,-29,-498,-232,8,10,8,8,
377,241,-209,-153,753,796.3033447265625,18.980125427246094,53.790008544921875,-15.216246102057621,-11.07757226474029,58,-844,-216,10,8,8,7,
378,246,-222,-82,750,786.4528198242188,17.510784149169922,69.72406005859375,-16.396337435577458,-5.984858299729234,57,-121,-153,16,9,13,8,
379,246,-228,-125,744,788.1275024414062,19.261701583862305,61.26293182373047,-16.815650648299346,-9.125863541634295,-33,-133,259,11,9,11,10,
380,246,-228,-124,712,757.8284912109375,20.025733947753906,61.456520080566406,-17.509242190794584,-9.417391416189684,78,-561,152,11,12,10,9,
381,246,-234,-133,730,778.0391845703125,20.237224578857422,60.383602142333984,-17.5030191072954,-9.842625026875243,-39,-182,344,9,10,8,9,
382,246,-207,-99,759,792.9255981445312,16.818607330322266,64.4366226196289,-15.132881555312775,-7.172329477259082,106,152,-325,7,7,6,7,
383,243,-212,-90,710,746.4207763671875,17.970121383666992,66.99407196044922,-16.500403588157234,-6.925312808677979,8,-316,216,8,7,8,8,
384,243,-220,-111,726,766.67919921875,18.74595069885254,63.223541259765625,-16.675554212194836,-8.32455366138499,53,-133,5,7,7,9,10,
385,243,-225,-121,756,797.9987182617188,18.669349670410156,61.72612762451172,-16.37693963575399,-8.72135931842755,-16,-420,-297,5,8,7,6,
386,243,-225,-63,750,785.5532836914062,17.301658630371094,74.3546371459961,-16.64388618095989,-4.599961195182878,-96,-122,-120,8,9,7,9,
387,251,-223,-81,730,767.587158203125,18.00240135192871,70.0342788696289,-16.88913604558038,-6.0574425324974115,8,40,881,8,12,11,11,
388,251,-222,-155,776,821.8789672851562,19.232446670532227,55.073631286621094,-15.670977547163643,-10.870640950620018,140,-209,-115,14,16,15,15,
389,251,-215,-105,720,758.7160034179688,18.380517959594727,63.96698760986328,-16.46164823599944,-7.954791541210031,10,-303,83,11,9,9,10,
390,251,-230,-79,708,748.60205078125,18.954866409301758,71.0403060913086,-17.89293931154473,-6.057705111671138,-7,-282,533,9,11,10,8,
391,251,-201,-66,759,787.9327392578125,15.572722434997559,71.81878662109375,-14.779387248818294,-4.804924770069127,-178,-253,62,14,12,12,13,
392,251,-215,-118,739,778.6334228515625,18.357412338256836,61.236881256103516,-16.029056349360445,-8.716620977695555,-112,30,426,11,10,15,11,
393,251,-201,-198,793,841.6970825195312,19.583110809326172,45.426822662353516,-13.815917849686464,-13.605712612609295,7,-160,284,9,10,12,9,
394,251,-216,-171,782,829.1085815429688,19.40498161315918,51.62872314453125,-15.100965043877604,-11.902425581087774,-48,-316,-460,9,10,11,9,
395,251,-238,-108,751,795.1785888671875,19.186491012573242,65.58895111083984,-17.41579439294712,-7.805955034998098,136,-286,324,15,17,12,13,
396,251,-213,-165,710,759.4036865234375,20.778846740722656,52.2331428527832,-16.289046988335112,-12.54907401250776,33,-404,-81,12,14,13,11,
397,259,-231,-135,752,798.17919921875,19.583070755004883,59.69377517700195,-16.82255920323271,-9.737527380389468,38,68,283,11,11,15,12,
398,259,-227,-189,789,842.4790649414062,20.52254295349121,50.215431213378906,-15.631118397170699,-12.963948234000682,-120,40,-516,8,11,11,10,
399,259,-228,-114,768,809.1995849609375,18.35973358154297,63.431514739990234,-16.36526918268001,-8.098768361544924,-132,-187,303,7,14,14,10,
400,259,-225,-115,705,748.9158935546875,19.716585159301758,62.92446517944336,-17.483688515282388,-8.833017759420429,-196,-275,391,8,11,13,9,
401,259,-230,-150,696,748.2085571289062,21.528535842895508,56.8850212097168,-17.902668307348144,-11.564963433806764,13,-443,-678,7,11,12,9,
402,259,-225,-89,701,741.5841064453125,19.040943145751953,68.41516876220703,-17.662203959163843,-6.892873514704732,-45,-430,141,10,9,13,10,
403,259,-226,-75,693,732.7687377929688,18.96098518371582,71.63794708251953,-17.96399462449599,-5.874598205136395,11,-464,582,7,7,13,8,
404,259,-222,-60,747,781.596435546875,17.108919143676758,74.87288665771484,-16.501117521126922,-4.402696856596048,-99,165,248,8,10,9,7,
405,259,-220,-136,675,722.8561401367188,20.9635066986084,58.27280807495117,-17.718957255551263,-10.844405541633027,71,-313,120,9,11,11,8,
406,259,-218,-83,735,771.1277465820312,17.60567283630371,69.15320587158203,-16.421584804779627,-6.178976521664372,66,-154,285,13,13,16,15,
407,261,-221,-75,726,762.5889892578125,17.818357467651367,71.25129699707031,-16.84611650624345,-5.644116540905793,-46,-222,485,7,10,11,9,
408,261,-218,-78,726,762.0262451171875,17.686250686645508,70.30964660644531,-16.623379424033377,-5.875009967692122,-124,-116,-153,12,9,11,8,
409,261,-213,-120,770,807.8793334960938,17.612640380859375,60.600425720214844,-15.286943381400063,-8.542155165692437,13,-47,-907,8,7,12,7,
410,261,-225,-90,717,756.8447875976562,18.672170639038086,68.19529724121094,-17.2947179779155,-6.829473398841698,109,-450,92,10,9,8,9,
411,261,-229,-82,720,759.9769897460938,18.664478302001953,70.29541015625,-17.537198219827932,-6.194158955081406,52,-237,-102,8,10,11,9,
412,260,-241,-86,726,769.774658203125,19.413349151611328,70.35800170898438,-18.244862089692816,-6.414533736375447,-1,-232,219,8,8,9,9,
413,260,-228,-93,754,793.1891479492188,18.083629608154297,67.806396484375,-16.70518553210705,-6.733314979350983,-193,-98,992,12,12,14,11,
414,260,-222,-146,747,792.8486328125,19.57830238342285,56.665138244628906,-16.26038347477587,-10.611353063103808,-91,-158,251,10,12,9,8,
415,260,-196,-122,759,793.3353881835938,16.91623306274414,58.09624099731445,-14.303499115110021,-8.846111996742588,-146,13,-508,12,9,10,8,
416,260,-216,-88,744,779.7025146484375,17.403650283813477,67.8303451538086,-16.082950132975327,-6.480413694488858,-65,-158,-649,8,10,10,11,
417,268,-225,-141,723,770.217529296875,20.164255142211914,57.922393798828125,-16.98523609717702,-10.54834861048635,-14,-232,242,10,9,9,9,
418,268,-223,-106,742,782.003173828125,18.40347671508789,64.57315826416016,-16.56871613936262,-7.790385475670935,-174,-225,243,8,9,10,9,
419,268,-200,-106,737,770.9766235351562,17.07105827331543,62.07292175292969,-15.035129343553127,-7.902510731894371,-20,-149,278,10,7,12,15,
420,268,-232,-76,742,781.1299438476562,18.209999084472656,71.85872650146484,-17.277843297702606,-5.5834228481167045,153,-186,672,9,7,11,13,
421,268,-222,-113,755,795.0333251953125,18.257654190063477,63.020050048828125,-16.214467426525054,-8.171258205520491,70,-19,675,10,7,10,10,
422,268,-230,-117,700,746.0489501953125,20.233877182006836,63.0343132019043,-17.956254681071037,-9.022723845100685,1,-335,-117,7,7,7,7,
423,268,-224,-96,732,771.50244140625,18.41203498840332,66.7980728149414,-16.878466423600376,-7.1479863474094305,-31,-309,-576,10,10,9,9,
424,268,-231,-82,741,780.4908447265625,18.302072525024414,70.45301055908203,-17.215567201754634,-6.0307436823381435,-34,-233,-509,6,6,7,8,
425,268,-207,-132,768,806.2859497070312,17.72532081604004,57.47150802612305,-14.876282728884982,-9.422515038935012,-168,-244,169,8,10,10,8,
426,272,-219,-120,728,769.6395263671875,18.931123733520508,61.27616882324219,-16.531879811684284,-8.969991701578905,-157,-16,384,9,9,11,8,
427,272,-228,-157,756,805.0894165039062,20.109296798706055,55.445159912109375,-16.451185360248108,-11.245272143848396,9,-276,942,9,6,8,7,
428,272,-249,-84,704,751.447265625,20.46739387512207,71.3550033569336,-19.35137770551107,-6.418182338343684,91,-251,705,10,7,10,10,
429,272,-234,-79,763,801.976318359375,17.934139251708984,71.34175872802734,-16.964503759724213,-5.653183259733151,-2,-27,197,9,8,12,10,
430,272,-215,-139,764,805.7555541992188,18.52410125732422,57.11323928833008,-15.4757383715014,-9.933723746972946,28,-70,-333,9,6,10,11,
431,275,-241,-143,747,797.8339233398438,20.561195373535156,59.31319808959961,-17.5818466322272,-10.325220928731271,142,-158,-821,6,8,7,10,
432,275,-207,-132,712,753.1381225585938,19.02267837524414,57.47150802612305,-15.953074774113881,-10.094176473205312,-86,-155,272,8,6,9,9,
433,275,-212,-69,720,753.7274169921875,17.202857971191406,71.96820831298828,-16.335945052693848,-5.252497934649304,16,68,695,10,7,11,10,
434,275,-216,-134,711,755.071533203125,19.67034912109375,58.182167053222656,-16.622556146446048,-10.222232959524566,-81,-322,908,7,9,9,6,
435,275,-243,-118,745,792.4632568359375,19.928449630737305,64.09552001953125,-17.856786794046176,-8.563347825223145,-43,-34,343,8,7,9,6,
436,276,-242,-120,732,780.2486572265625,20.252721786499023,63.62123489379883,-18.068724013143708,-8.84703985634336,-35,-52,-344,9,9,7,7,
437,276,-228,-80,693,733.9161987304688,19.220008850097656,70.6619644165039,-18.09914031172566,-6.2579192546201625,103,-63,-92,15,7,10,9,
438,276,-234,-95,723,765.8394165039062,19.252582550048828,67.90038299560547,-17.791080954312413,-7.125718457213738,62,-72,-417,8,11,12,12,
439,276,-201,-138,723,763.0032958984375,18.633270263671875,55.52410888671875,-15.27384332531559,-10.420102788668093,-18,-284,188,7,5,10,11,
440,276,-215,-167,783,828.97705078125,19.1698055267334,52.15815734863281,-15.031840044396342,-11.621945046207529,-222,102,1133,15,10,10,11,
441,284,-175,-138,731,764.2185668945312,16.953125,51.737911224365234,-13.237738823745566,-10.403347805898774,-280,296,477,8,7,10,6,
442,284,-202,-72,734,764.685546875,16.284271240234375,70.37889099121094,-15.317097385257796,-5.402764508583602,-110,104,1122,8,7,9,12,
443,284,-210,-104,717,754.32421875,18.09714698791504,63.65019607543945,-16.16442983331918,-7.924712430836616,-74,-25,-586,10,7,10,9,
444,284,-231,-78,726,765.8466186523438,18.561552047729492,71.33890533447266,-17.55535000301485,-5.845600736277306,-95,-78,-496,9,5,9,9,
445,284,-228,-85,711,751.4851684570312,18.890640258789062,69.55093383789062,-17.661881253811664,-6.494587078421019,37,-185,-843,11,7,10,8,
446,283,-261,-99,713,765.6964111328125,21.378711700439453,69.22447967529297,-19.929654257099255,-7.42880079361735,47,80,276,10,7,8,8,
447,283,-217,-122,739,779.8038330078125,18.61480140686035,60.65127182006836,-16.157285268631295,-9.000878281074517,-195,-191,1006,11,9,10,11,
448,283,-208,-112,724,761.5668334960938,18.069093704223633,61.69574737548828,-15.850078065624874,-8.456890625170653,-164,-135,365,9,9,7,5,
449,283,-204,-109,739,774.3500366210938,17.377073287963867,61.880306243896484,-15.274678529179154,-8.092012412645023,-174,-100,343,5,4,7,6,
450,283,-231,-94,738,779.0,18.669614791870117,67.85398864746094,-17.249546623193787,-6.9306287507935505,-206,-257,452,8,9,11,9,
451,288,-213,-74,741,774.5488891601562,16.92299461364746,70.8386459350586,-15.961941242020186,-5.482371033299371,-126,-46,-584,7,15,8,9,
452,288,-219,-126,753,794.2581176757812,18.546436309814453,60.082820892333984,-16.00546221167561,-9.12788452736749,56,-32,-689,7,8,10,8,
453,288,-225,-69,745,781.2880249023438,17.528966903686523,72.94781494140625,-16.737417813468284,-5.066717932100931,263,42,-463,6,5,8,6,
454,288,-220,-120,709,751.9846801757812,19.4641056060791,61.386043548583984,-17.011230341185957,-9.182386047549274,6,-409,632,12,8,9,9,
455,288,-243,-108,756,801.4044189453125,19.376983642578125,66.03414916992188,-17.65096881191823,-7.744940078176671,59,-289,1392,9,8,10,11,
456,291,-236,-126,755,800.9974975585938,19.50937843322754,61.89883041381836,-17.135509499835802,-9.050437171489842,248,-174,462,7,11,9,8,
457,291,-249,-121,739,789.1533203125,20.53481674194336,64.0794448852539,-18.39269342334646,-8.819889739875986,185,-275,5,7,6,9,6,
458,291,-222,-100,732,771.4324340820312,18.396413803100586,65.74742889404297,-16.724875293809102,-7.448153057793174,-47,-292,-579,7,6,9,6,
459,291,-210,-84,736,769.9688110351562,17.080333709716797,68.19529724121094,-15.827277625797006,-6.263167672676497,26,-147,-812,9,8,12,9,
460,295,-197,-97,777,807.432373046875,15.778494834899902,63.781585693359375,-14.121757207646324,-6.899830588584162,-266,-19,-250,11,14,10,10,
461,295,-240,-163,801,851.92138671875,19.90811538696289,55.81329345703125,-16.36265628396859,-11.03054092616083,172,-10,1054,10,9,8,6,
462,295,-232,-118,743,787.2718505859375,19.304061889648438,63.03772735595703,-17.13886192935078,-8.620244204704134,10,-109,1435,7,10,7,6,
463,295,-191,-80,720,749.1868896484375,16.043439865112305,67.27039337158203,-14.770211302500721,-6.12986995387238,-46,212,718,8,9,9,9,
464,295,-213,-141,740,782.8473510742188,19.042083740234375,56.492916107177734,-15.78829622109494,-10.376268304159623,134,-149,-158,9,8,10,10,
465,288,-210,-133,714,756.0324096679688,19.193103790283203,57.64894485473633,-16.12691006194727,-10.132106860893748,-53,-326,-756,8,12,10,11,
466,288,-249,-104,752,798.949951171875,19.73784637451172,67.32781219482422,-18.15924268356934,-7.479465752272165,-69,-66,-380,7,13,6,12,
467,288,-228,-71,706,745.2925415039062,18.685606002807617,72.70005798339844,-17.813529943360017,-5.466549531602404,41,30,-93,8,10,8,8,
468,288,-207,-126,738,776.768310546875,18.17618751525879,58.667724609375,-15.455432223343099,-9.335226754132126,-119,-169,290,9,8,9,9,
469,288,-204,-162,702,748.7750244140625,20.35692596435547,51.54249572753906,-15.809810161199644,-12.494939089368918,-367,-63,1468,8,9,9,10,
470,300,-221,-111,708,749.95068359375,19.252588272094727,63.32789611816406,-17.138712581708038,-8.511605423075569,-84,-304,396,11,19,13,10,
471,300,-222,-74,727,763.7335815429688,17.84032440185547,71.56185150146484,-16.898507878182055,-5.5602503577819515,-117,-83,674,10,17,9,7,
472,300,-218,-57,732,765.8961791992188,17.107572555541992,75.34394836425781,-16.53696437325846,-4.26804797366679,-392,123,200,9,9,7,6,
473,300,-201,-129,788,823.3990478515625,16.859355926513672,57.30440902709961,-14.129247713312159,-9.013527688032035,-521,35,-1392,7,12,7,10,
474,300,-213,-131,753,793.4349365234375,18.368436813354492,58.40392303466797,-15.572232862125679,-9.50332866729774,-11,-76,-788,9,8,10,9,
475,299,-229,-80,698,738.9485473632812,19.16147232055664,70.74017333984375,-18.05319074698684,-6.2151331948296855,-13,195,1178,10,8,10,9,
476,299,-198,-119,714,750.4405517578125,17.926420211791992,58.99014663696289,-15.298335108910305,-9.124108108300806,-249,-188,1065,9,10,8,7,
477,299,-220,-131,699,744.4205932617188,20.1160945892334,59.22456741333008,-17.18943286704997,-10.135448074728203,145,-304,242,12,10,11,9,
478,299,-204,-100,711,746.4160766601562,17.718524932861328,63.882659912109375,-15.861088256347285,-7.699268279773096,-119,-190,155,7,7,7,8,
479,299,-225,-75,711,749.5138549804688,18.445222854614258,71.56185150146484,-17.469290970666776,-5.742905591160772,-255,-20,713,9,8,7,8,
480,303,-207,-81,755,787.0419311523438,16.403066635131836,68.62609100341797,-15.248747832190928,-5.907169654125708,-88,28,168,8,6,7,6,
481,303,-213,-150,762,805.3030395507812,18.872716903686523,54.842132568359375,-15.337048868140283,-10.734910076003704,-112,-194,-675,8,6,9,8,
482,303,-210,-134,762,801.6857299804688,18.101299285888672,57.45463562011719,-15.185683094810765,-9.622026963801643,-167,164,395,8,7,9,8,
483,303,-240,-106,741,786.0769653320312,19.495464324951172,66.16719818115234,-17.777032660797296,-7.749763840010014,-107,65,240,8,7,11,5,
484,303,-208,-130,735,774.8477172851562,18.452722549438477,57.991024017333984,-15.571449325552223,-9.658472171365583,-124,-237,467,8,8,12,12,
485,306,-210,-114,746,783.3339233398438,17.758399963378906,61.50086212158203,-15.550339695224872,-8.368076303971598,-112,-295,189,4,7,10,7,
486,306,-203,-84,724,756.5983276367188,16.87790870666504,67.51725006103516,-15.563499375690117,-6.374304559420359,-31,-173,-52,8,8,8,7,
487,306,-231,-89,735,775.56884765625,18.6117000579834,68.92597961425781,-17.328269171839324,-6.589464258390972,-37,-323,-349,13,8,11,9,
488,306,-196,-86,727,757.8529052734375,16.402881622314453,66.30595397949219,-14.988513375347479,-6.515874353473144,-323,153,-187,8,12,10,11,
489,306,-216,-147,803,844.4370727539062,18.021438598632812,55.75886917114258,-14.820502223176428,-10.025151207694183,-68,18,707,8,16,9,9,
490,306,-222,-103,718,758.5624389648438,18.819589614868164,65.10700988769531,-17.01720346177274,-7.803908102514526,6,-301,599,9,6,8,6,
491,306,-210,-93,678,715.84423828125,18.711627960205078,66.11013793945312,-17.05921585952759,-7.464768782319081,-187,-465,-893,9,9,10,12,
492,306,-220,-63,709,745.0167846679688,17.886306762695312,74.01708984375,-17.175249469997098,-4.850830239597212,-150,-121,590,7,7,10,11,
493,306,-189,-136,762,796.7816772460938,16.989503860473633,54.25838088989258,-13.721591912357306,-9.827745394482243,-234,-67,490,11,10,10,12,
494,306,-267,-92,678,734.4637451171875,22.61109161376953,70.98441314697266,-21.317177267347855,-7.195854883317961,-164,-90,417,7,6,8,7,
495,311,-248,-77,688,735.3754272460938,20.67646598815918,72.74811553955078,-19.70897402191387,-6.010367831418423,-65,-205,-67,8,8,9,7,
496,311,-233,-92,707,750.0679931640625,19.508264541625977,68.45013427734375,-18.097713873077964,-7.045386613937727,18,-159,-788,9,9,7,6,
497,311,-219,-162,687,739.035888671875,21.627058029174805,53.50496292114258,-17.23742922970804,-12.662314886519319,20,-38,289,6,6,10,8,
498,311,-219,-103,692,733.098876953125,19.274118423461914,64.8080825805664,-17.38145173503698,-8.076748878590168,-168,-198,1073,11,8,15,10,
499,311,-224,-148,731,778.7432250976562,20.16490364074707,56.543052673339844,-16.71689563805994,-10.955691016654551,-5,27,456,8,7,9,12,
500,311,-229,-75,735,773.4927368164062,18.14954948425293,71.86262512207031,-17.22109056283863,-5.564300071372718,18,104,-512,7,8,9,8,
501,311,-234,-109,717,762.0538330078125,19.798322677612305,65.01993560791016,-17.882438423144364,-8.223479110844828,99,-54,-212,7,8,10,10,
502,311,-210,-141,704,748.0621337890625,19.761112213134766,56.11780548095703,-16.303499618663057,-10.864500953081185,5,-161,213,10,7,9,10,
503,311,-221,-77,684,722.9287719726562,18.886234283447266,70.78760528564453,-17.800338833120584,-6.114239423399128,112,-722,-42,10,10,12,10,
504,311,-225,-61,702,739.6958618164062,18.36833953857422,74.8280029296875,-17.708781136402134,-4.730344258943689,-116,-295,-136,11,11,13,16,
505,315,-210,-100,755,790.0158081054688,17.12042808532715,64.53325653076172,-15.415532104773826,-7.271993119634336,-220,-83,450,8,8,9,12,
506,315,-235,-177,693,752.8632202148438,23.00079345703125,53.009498596191406,-18.188346814215794,-13.59766324407532,277,-228,-900,16,12,17,13,
507,315,-204,-96,726,760.2025756835938,17.25005531311035,64.79548645019531,-15.566076937337549,-7.254802879403391,-117,-169,233,9,8,10,11,
508,315,-209,-64,714,746.7081298828125,17.018962860107422,72.97119903564453,-16.253948779641888,-4.916826764554523,-31,-140,917,8,8,8,7,
509,315,-235,-73,752,791.23828125,18.117542266845703,72.74004364013672,-17.277674351183283,-5.293662610346153,-53,9,1001,12,10,13,9,
510,319,-235,-128,787,831.2508544921875,18.777145385742188,61.42020797729492,-16.421802088532377,-8.857922867526883,-46,231,-560,9,13,9,10,
511,319,-219,-115,697,739.5911254882812,19.53716278076172,62.29193115234375,-17.2240836824152,-8.945292547606737,-25,-321,702,7,8,8,11,
512,319,-201,-94,693,727.6578979492188,17.752593994140625,64.93291473388672,-16.03525069324728,-7.422301884023066,-210,-352,-689,11,9,12,12,
513,319,-252,-99,765,811.4985961914062,19.487821578979492,68.5489730834961,-18.09156995003577,-7.007340974091437,-93,-231,-197,12,9,11,14,
514,326,-210,-150,789,830.1331176757812,18.110000610351562,54.458621978759766,-14.65341868138651,-10.410180727284553,-60,332,105,11,11,12,14,
515,326,-217,-170,817,862.251708984375,18.642614364624023,51.92070770263672,-14.576158046803174,-11.370827707324121,-174,-49,375,12,11,15,14,
516,326,-233,-132,708,756.9524536132812,20.71650505065918,60.46390151977539,-17.927496777211807,-10.042782375508642,-159,-143,853,16,9,13,13,
517,326,-224,-89,711,750.7449340820312,18.7248592376709,68.32772064208984,-17.35974583633659,-6.808363675649539,18,-10,-19,7,9,9,8,
518,326,-240,-96,711,756.5296020507812,19.976945877075195,68.19529724121094,-18.495978412416108,-7.290216535492312,101,-119,-756,10,8,9,8,
519,326,-231,-159,786,834.5286254882812,19.633485794067383,55.456241607666016,-16.069488429816857,-10.983524654372447,-28,231,105,14,8,11,10,
520,326,-207,-163,798,840.3701782226562,18.26938247680664,51.777923583984375,-14.259856666201639,-11.184101501962179,-68,187,15,10,11,10,10,
521,326,-229,-117,763,805.170166015625,18.623497009277344,62.93327713012695,-16.523699914306565,-8.35528299844284,-125,-43,454,7,9,8,9,
522,326,-248,-180,747,807.4113159179688,22.302631378173828,54.023895263671875,-17.887829894705888,-12.881461124099243,122,-236,83,12,5,10,10,
523,326,-228,-127,711,757.3862915039062,20.154460906982422,60.87790298461914,-17.519795409458126,-9.653069156758473,-85,-270,186,8,8,12,13,
524,329,-223,-131,741,784.8381958007812,19.23841667175293,59.564598083496094,-16.507150175830418,-9.608404923011877,-104,-299,819,12,12,14,14,
525,329,-225,-71,708,746.2774047851562,18.42820930480957,72.48345184326172,-17.54750594072434,-5.459313355826404,-13,-187,-254,8,9,9,10,
526,329,-192,-111,753,784.980224609375,16.408817291259766,59.96317672729492,-14.15773173585851,-8.129145899290203,-421,-407,-829,13,13,16,15,
527,329,-238,-112,703,750.5977783203125,20.51190757751465,64.79548645019531,-18.48646441648289,-8.581403056382515,251,-311,19,11,10,11,14,
528,329,-228,-144,749,796.0659790039062,19.79859733581543,57.72074890136719,-16.643055658172123,-10.421576989153293,115,-157,-540,17,13,18,14,
529,331,-229,-93,721,762.1882934570312,18.91998291015625,67.89395904541016,-17.484674634096002,-7.008529056456346,-116,-373,939,9,10,13,16,
530,331,-228,-80,754,791.7701416015625,17.76651382446289,70.6619644165039,-16.73600426419161,-5.799028134369441,-32,-28,1390,11,13,13,15,
531,331,-226,-134,753,797.5217895507812,19.23299217224121,59.331886291503906,-16.461908561246894,-9.67274596213858,-39,26,774,11,10,10,11,
532,331,-250,-141,797,847.1068115234375,19.8032283782959,60.573486328125,-17.16486271594779,-9.581414235296412,-94,38,-550,9,9,14,13,
533,331,-244,-131,770,818.2890625,19.77981948852539,61.76582717895508,-17.34851064543746,-9.2121274850833,-7,-106,-616,10,7,11,7,
534,331,-203,-108,717,752.9688110351562,17.778871536254883,61.98265075683594,-15.640435412055382,-8.246504180642965,-131,-383,-919,14,8,11,9,
535,331,-189,-99,734,764.3807983398438,16.20589256286621,62.350563049316406,-14.315370604224729,-7.441659253583613,-383,-104,190,8,9,12,18,
536,331,-211,-120,792,828.3628540039062,17.037384033203125,60.36869812011719,-14.756952744421747,-8.329406963108225,-90,264,877,12,8,14,11,
537,331,-198,-136,780,816.1494750976562,17.114553451538086,55.51237106323242,-14.040199727771455,-9.592294251235822,-115,-63,772,12,10,12,9,
538,331,-221,-116,749,789.4922485351562,18.427812576293945,62.3021354675293,-16.255833164518297,-8.449050254861225,-172,69,624,12,9,11,12,
539,337,-249,-108,748,795.7191772460938,19.94131088256836,66.54859161376953,-18.235561318624985,-7.800619004015084,47,49,-690,13,12,11,11,
540,337,-229,-102,705,748.24462890625,19.572660446166992,65.98773956298828,-17.821324365562425,-7.834901479849054,218,-126,-934,10,11,12,14,
541,337,-193,-106,693,727.1409912109375,17.624948501586914,61.21990203857422,-15.392093982656398,-8.382241858330001,-272,-420,-472,14,14,13,13,
542,337,-200,-123,706,744.0194702148438,18.393558502197266,58.40489196777344,-15.593476877656204,-9.515722760152288,-141,26,470,14,12,13,13,
543,337,-226,-117,730,773.0879516601562,19.217283248901367,62.625980377197266,-16.99774897700431,-8.704654545601622,-178,-27,1313,12,9,10,12,
544,340,-243,-117,710,759.49853515625,20.797685623168945,64.28662109375,-18.6597776210784,-8.86164651528883,-199,-276,275,14,14,15,13,
545,340,-233,-104,684,730.0418090820312,20.455291748046875,65.94294738769531,-18.612121729525363,-8.190082038937543,35,-340,548,9,11,13,10,
546,340,-231,-85,711,752.4008178710938,19.093332290649414,69.79488372802734,-17.87956518925911,-6.486649582647075,-132,-197,-76,11,7,6,8,
547,340,-213,-71,730,763.747314453125,17.093856811523438,71.56185150146484,-16.193850767776826,-5.334071035462445,-199,-273,-180,12,9,13,12,
548,340,-224,-147,758,803.9583129882812,19.464685440063477,56.721473693847656,-16.1779430685799,-10.535534367841688,-189,-186,-7,11,7,13,10,
549,340,-234,-157,791,839.6939697265625,19.606054306030273,56.13709259033203,-16.181018051608298,-10.776177108879706,-62,33,-1038,13,10,12,11,
550,340,-238,-99,728,772.2881469726562,19.495887756347656,67.4110107421875,-17.949289426819327,-7.365040332084181,-26,-398,-7,12,12,13,12,
551,340,-205,-41,691,721.9328002929688,16.830860137939453,78.68708038330078,-16.496689156958634,-3.2556929238620977,-23,-607,1421,21,19,23,23,
552,340,-235,-129,760,805.89453125,19.427433013916016,61.23252487182617,-16.95385575592981,-9.210992564200383,136,-190,754,14,14,13,15,
553,345,-216,-143,758,801.0424194335938,18.86574935913086,56.49032211303711,-15.643359507681575,-10.283413379535345,-18,-98,288,20,21,19,16,
554,345,-244,-148,764,815.5587158203125,20.480119705200195,58.757205963134766,-17.40844312907854,-10.455435008061993,-8,-95,-708,16,16,17,13,
555,345,-216,-75,714,749.7179565429688,17.75494384765625,70.84864044189453,-16.74473948420061,-5.741336877690179,37,-93,-754,11,12,12,14,
556,345,-215,-106,741,778.8080444335938,17.92403793334961,63.752201080322266,-16.02536510889526,-7.82254592410842,-26,-212,-588,8,6,10,13,
557,345,-234,-146,729,779.4312133789062,20.721704483032227,58.03506851196289,-17.47075290351492,-10.796195142817432,145,132,1250,10,7,7,11,
558,351,-206,-168,779,823.1044921875,18.83917236328125,50.79777908325195,-14.493607841075388,-11.777129986154984,98,-112,424,13,9,13,13,
559,351,-194,-126,772,805.9131469726562,16.6784610748291,56.99327087402344,-13.929082250429579,-8.99477483613223,-103,-194,811,9,8,8,10,
560,351,-211,-78,721,755.2787475585938,17.32603645324707,69.70899200439453,-16.222432064618594,-5.92768320286097,-81,-5,4,13,12,12,13,
561,351,-235,-124,720,767.4639892578125,20.253999710083008,62.17772674560547,-17.830571089087233,-9.29809998031468,148,-83,-878,12,10,9,9,
562,351,-219,-119,706,748.7042236328125,19.442747116088867,61.47777557373047,-17.00800830566188,-9.145449205502272,139,-529,-634,9,8,10,8,
563,353,-210,-155,783,825.3568725585938,18.433338165283203,53.56541061401367,-14.740131738140756,-10.824279393186337,-184,-264,125,19,20,21,22,
564,353,-239,-120,767,812.286865234375,19.220321655273438,63.335697174072266,-17.11143157735637,-8.495460692063556,-40,-201,205,11,11,16,14,
565,353,-222,-107,723,763.8468627929688,18.82000732421875,64.26335906982422,-16.89592718899941,-8.052500844533453,-25,-183,1303,11,8,11,13,
566,353,-225,-141,713,760.83837890625,20.423877716064453,57.922393798828125,-17.20110160525814,-10.679899733903795,-66,-402,11,12,11,12,12,
567,353,-218,-121,735,776.1378784179688,18.736026763916016,60.96421432495117,-16.312609327976045,-8.969004897736772,93,-350,507,15,13,14,11,
568,357,-227,-86,746,784.50048828125,18.022510528564453,69.247314453125,-16.819410695448934,-6.293635370443937,-127,-171,14,9,7,9,8,
569,357,-160,-112,740,765.339111328125,14.782466888427734,55.00428771972656,-12.067133686695673,-8.414903771218356,-338,-314,-970,12,11,12,11,
570,357,-270,-125,725,783.67724609375,22.310678482055664,65.15422058105469,-20.153083267197637,-9.17813350247423,153,-19,994,7,10,11,8,
571,357,-231,-167,697,753.033203125,22.240509033203125,54.131473541259766,-17.86404397842308,-12.813001430778462,144,-447,-1352,11,8,13,13,
572,357,-239,-51,715,755.6103515625,18.867887496948242,77.95136260986328,-18.439347143573066,-3.8701269175447304,-134,-771,916,14,10,13,10,
573,358,-236,-62,705,746.0328369140625,19.08920669555664,75.27725219726562,-18.441724990096237,-4.767136273325468,171,-83,1528,19,18,18,16,
574,358,-207,-139,756,796.0565185546875,18.251144409179688,56.115074157714844,-15.071948115287734,-10.05600492946268,-39,-107,-483,11,10,14,12,
575,358,-222,-117,732,773.8197631835938,18.920644760131836,62.20608901977539,-16.6717674877096,-8.696358934246911,-69,191,389,9,12,12,11,
576,358,-219,-102,720,759.450439453125,18.546531677246094,65.02269744873047,-16.760180424780092,-7.718586066876974,4,-48,-608,14,10,15,13,
577,358,-206,-68,751,781.7039184570312,16.10965919494629,71.7289047241211,-15.27943873753862,-4.990436314943666,-61,-129,101,8,11,10,8,
578,366,-200,-103,755,787.8032836914062,16.59010887145996,62.74806594848633,-14.70666643349426,-7.512546885361512,-139,-83,-113,9,8,11,12,
579,366,-189,-206,801,848.385498046875,19.237964630126953,42.53157043457031,-12.872137927251478,-14.052692788133655,-161,26,585,14,11,15,13,
580,366,-200,-111,753,786.9752197265625,16.894983291625977,60.96620559692383,-14.722490357905677,-8.108399805451995,-222,-11,788,12,13,15,17,
581,366,-236,-77,708,750.25927734375,19.319950103759766,71.92679595947266,-18.334127797031233,-5.890706081853968,8,-162,-191,12,10,16,16,
582,362,-284,-87,705,765.016357421875,22.844432830810547,72.96502685546875,-21.791735284039607,-6.529978658829424,281,65,-456,10,13,12,8,
583,362,-213,-92,748,783.1583251953125,17.23102569580078,66.63594055175781,-15.781863337148142,-6.746287448567562,-273,186,46,11,10,11,13,
584,362,-174,-136,778,808.7373046875,15.844988822937012,51.98470687866211,-12.424340143640492,-9.68105153010941,-203,-13,453,9,12,16,14,
585,362,-204,-93,684,719.8062133789062,18.14576530456543,65.48921966552734,-16.463806655510048,-7.423448984800098,-118,-113,-295,12,9,12,10,
586,362,-225,-93,706,746.7998657226562,19.02454948425293,67.53974914550781,-17.534832575175834,-7.153693254666436,-47,-278,348,12,10,12,10,
587,368,-240,-156,703,759.0421752929688,22.152963638305664,56.972503662109375,-18.432545390704803,-11.860068720919582,-72,-373,733,12,7,10,8,
588,368,-202,-85,714,746.8768310546875,17.061195373535156,67.17570495605469,-15.691616847193215,-6.534833985678534,-67,-234,-301,11,8,7,8,
589,368,-213,-81,727,761.8786010742188,17.401702880859375,69.17584228515625,-16.234667972081255,-6.10300092953415,0,-158,-259,11,13,13,11,
590,368,-214,-85,754,788.3761596679688,16.97991371154785,68.33391571044922,-15.750212581130484,-6.189464504927501,-162,-64,200,13,10,13,9,
591,368,-243,-105,707,754.9324340820312,20.524858474731445,66.6275405883789,-18.776845369453344,-7.994919515140801,142,-24,-80,10,13,12,17,
592,369,-228,-120,699,744.97314453125,20.231794357299805,62.23798370361328,-17.82142363025785,-9.269567352485275,14,-594,555,12,11,10,11,
593,369,-216,-133,751,792.6828002929688,18.66118049621582,58.374114990234375,-15.812630530370717,-9.659038545745547,25,-303,346,14,11,16,15,
594,369,-216,-71,732,766.4992065429688,17.253402709960938,71.80091857910156,-16.367705022875896,-5.314865722877318,10,-95,-221,8,10,9,10,
595,369,-228,-90,728,768.1588134765625,18.606468200683594,68.45573425292969,-17.26632146139069,-6.72841483692005,-2,289,-332,13,8,12,7,
596,369,-247,-143,744,796.8651123046875,20.98545265197754,59.927879333496094,-18.057099073077534,-10.337912350995877,-76,-491,316,10,9,8,10,
597,371,-255,-112,760,809.4251098632812,20.12397003173828,66.2848129272461,-18.363132736377253,-7.953525293874076,20,185,329,6,8,8,6,
598,371,-237,-72,725,766.1448974609375,18.860572814941406,73.09820556640625,-18.01951839137429,-5.392442899808626,-1,58,190,10,15,9,8,
599,371,-201,-84,726,757.9795532226562,16.7004337310791,67.31611633300781,-15.377568938730695,-6.362640830190646,-96,74,435,11,12,11,10,
600,371,-214,-147,771,813.5391845703125,18.60820960998535,55.510528564453125,-15.25100745551009,-10.410067872217468,-92,-13,-113,8,8,8,7,
601,371,-234,-185,779,834.1594848632812,20.950944900512695,51.666385650634766,-16.2913560899138,-12.81361064013495,28,-314,-157,8,8,7,7,
602,381,-222,-89,756,792.931884765625,17.553665161132812,68.15081024169922,-16.258629160155774,-6.444554157633635,62,12,-57,14,11,20,15,
603,381,-228,-140,763,808.5499267578125,19.3215274810791,58.44502639770508,-16.378788765394663,-9.97098715601738,-18,-54,436,6,8,8,12,
604,381,-231,-131,742,788.090087890625,19.690074920654297,60.43893051147461,-17.044460668672503,-9.56838422971114,64,-415,322,10,7,9,9,
605,381,-220,-115,736,776.7374267578125,18.63651466369629,62.39923858642578,-16.4534349164429,-8.514238423810593,78,-477,-170,10,6,9,8,
606,381,-226,-73,723,761.008544921875,18.182649612426758,72.09590148925781,-17.275964541154455,-5.504580902571668,95,-20,66,10,7,8,7,
607,379,-233,-77,734,773.93408203125,18.483890533447266,71.70953369140625,-17.52123357420953,-5.709899586038594,55,-83,672,6,6,8,9,
608,379,-248,-191,791,850.6856079101562,21.588363647460938,52.394161224365234,-16.949550730958883,-12.97493520343095,-15,-242,-359,8,9,10,11,
609,379,-252,-105,762,809.4275512695312,19.708887100219727,67.37681579589844,-18.139468753792432,-7.453487801158073,-63,323,-149,11,8,8,9,
610,379,-214,-52,693,727.1513061523438,17.62750244140625,76.33930206298828,-17.11551553923343,-4.100832712049102,-17,-149,-55,10,6,8,11,
611,379,-210,-108,742,778.670654296875,17.651716232299805,62.78044128417969,-15.64584450616488,-7.972507409345562,-3,-349,-299,8,10,8,8,
612,388,-209,-123,725,764.4834594726562,18.492639541625977,59.51892852783203,-15.865924876114246,-9.258729773317066,21,-318,137,11,8,8,10,
613,388,-230,-102,723,765.5278930664062,19.185726165771484,66.08039093017578,-17.484408401833196,-7.656939931559358,46,-416,617,11,8,12,11,
614,388,-228,-67,720,758.2037963867188,18.2636775970459,73.62092590332031,-17.500294801798738,-5.069653949792399,73,-77,389,11,6,9,8,
615,388,-225,-99,748,787.3563232421875,18.190080642700195,66.24715423583984,-16.604666523016057,-7.223331518931383,-21,-42,3,12,9,7,10,
616,388,-224,-182,768,820.4413452148438,20.594371795654297,50.90233612060547,-15.84427911391849,-12.816647648997437,80,-125,-609,6,6,6,7,
617,380,-222,-149,725,772.7289428710938,20.24100112915039,56.127967834472656,-16.695991074265464,-11.11758404962846,101,-247,84,9,7,9,8,
618,380,-226,-63,721,758.2123413085938,18.02300262451172,74.42048645019531,-17.34169104676988,-4.766211519935281,-13,9,-214,9,8,11,9,
619,380,-241,-107,699,747.0816650390625,20.66605567932129,66.05621337890625,-18.81954283655901,-8.234446674859807,5,-349,1629,10,12,8,12,
620,380,-232,-123,699,746.6953735351562,20.58733558654785,62.065216064453125,-18.101561541017524,-9.481306407364064,2,-356,-246,12,8,10,9,
621,380,-214,-74,713,748.091552734375,17.616573333740234,70.92168426513672,-16.622294224685632,-5.676888909600917,-101,-112,2,8,12,9,8,
622,396,-240,-57,707,748.7977294921875,19.2320499420166,76.63673400878906,-18.69400039428234,-4.365694112246131,88,-326,178,9,8,7,7,
623,396,-242,-81,732,775.208984375,19.217918395996094,71.49085235595703,-18.19028733199176,-5.997666005170734,37,40,103,10,9,10,7,
624,396,-212,-181,806,852.8428955078125,19.07592010498047,49.50632858276367,-14.39352156183976,-12.253147293269068,-264,127,-30,13,12,12,9,
625,396,-212,-170,739,787.3785400390625,20.187252044677734,51.27053451538086,-15.61951559128303,-12.468703948869507,-13,11,-618,15,12,15,14,
626,396,-265,-69,707,758.1787109375,21.170385360717773,75.40245056152344,-20.458069263139713,-5.221574141147665,162,-49,1149,11,9,13,13,
627,387,-237,-46,732,770.78466796875,18.251089096069336,79.01289367675781,-17.907361161893487,-3.421413270375628,151,-246,410,9,9,12,9,
628,387,-210,-111,774,809.627685546875,17.058448791503906,62.13688278198242,-15.033186539568558,-7.880073399096808,14,256,547,10,7,12,9,
629,387,-228,-188,807,859.405029296875,20.110021591186523,50.48849868774414,-15.384768982728247,-12.635976988408249,62,-414,-891,9,8,9,8,
630,387,-244,-95,733,778.3636474609375,19.655622482299805,68.72355651855469,-18.26896531008242,-7.010481685809854,98,-67,-716,10,9,9,9,
631,387,-204,-85,665,700.760986328125,18.381126403808594,67.37681579589844,-16.924546647461426,-6.966944836580247,-236,-750,-234,13,8,11,8,
632,398,-228,-132,709,756.3656616210938,20.382274627685547,59.927879333496094,-17.544203795312377,-10.050654465356352,-13,-64,-143,24,12,16,11,
633,398,-226,-72,693,732.4677734375,18.89235496520996,72.32577514648438,-17.97162807663849,-5.641161155901334,-32,-287,788,16,12,11,12,
634,398,-214,-69,692,727.6132202148438,17.998201370239258,72.12594604492188,-17.104314794610378,-5.441570019917068,-7,-434,1083,10,9,10,7,
635,398,-205,-81,756,787.478271484375,16.252599716186523,68.4366455078125,-15.089326535201216,-5.903884992021629,-201,-161,199,7,9,8,6,
636,398,-231,-137,683,733.9066772460938,21.463790893554688,59.325382232666016,-18.345958710793795,-10.758643111439856,-33,-335,-71,12,10,9,12,
637,396,-215,-94,715,752.519775390625,18.16683006286621,66.38125610351562,-16.601100881819512,-7.175769911809737,34,-326,-710,15,7,10,7,
638,396,-223,-96,734,773.1112670898438,18.30060386657715,66.70510864257812,-16.76487762612752,-7.133034237469252,26,-142,-679,8,9,8,7,
639,396,-231,-60,739,776.5835571289062,17.896087646484375,75.4366455078125,-17.304912180231902,-4.4311731792524345,25,52,242,8,8,10,12,
640,396,-231,-103,710,753.7041625976562,19.605318069458008,65.96514129638672,-17.847605059054178,-7.854527448230159,184,157,727,9,7,9,7,
641,391,-244,-158,730,785.748046875,21.710628509521484,57.0716552734375,-18.09130080613486,-11.60025423337701,7,-282,945,7,9,9,11,
642,391,-229,-133,738,784.0752563476562,19.73772430419922,59.849029541015625,-16.98155338477008,-9.766108095626679,-11,-336,501,7,7,8,7,
643,391,-228,-76,682,723.107177734375,19.410097122192383,71.56185150146484,-18.379284890714676,-6.03304234713747,-93,-190,-343,12,8,9,8,
644,391,-215,-110,741,779.362548828125,18.04963493347168,62.900997161865234,-16.01365689515267,-8.11387554701641,-59,41,-656,6,7,6,6,
645,391,-226,-109,750,790.8583984375,18.495542526245117,64.24853515625,-16.60460826120377,-7.922003596474876,-21,348,-302,10,8,11,8,
646,401,-228,-178,726,781.5010986328125,21.721399307250977,52.01700210571289,-16.962528809654824,-13.165628799312987,52,-653,330,9,11,9,7,
647,401,-216,-105,748,785.6112060546875,17.79871368408203,64.07168579101562,-15.958745742740458,-7.6807883324154655,-143,-9,752,7,7,8,7,
648,401,-224,-92,699,739.7573852539062,19.105709075927734,67.66802978515625,-17.6259742599502,-7.1440924309713605,-5,-350,993,8,7,8,8,
649,401,-210,-113,735,772.7185668945312,17.9736328125,61.712032318115234,-15.769486223525133,-8.408914186762031,-98,-149,878,11,10,10,11,
650,401,-245,-60,716,759.1317138671875,19.4047908782959,76.23615264892578,-18.828535979117152,-4.533252826716109,78,-232,129,11,11,10,12,
651,393,-235,-69,736,775.681640625,18.403900146484375,73.63372802734375,-17.635435234560994,-5.103435512984665,17,-111,-751,12,7,11,10,
652,393,-221,-125,768,808.8819580078125,18.291818618774414,60.503501892089844,-15.855765186192677,-8.889787824380354,-153,-157,-1091,7,11,8,10,
653,393,-223,-145,738,784.4730834960938,19.818540573120117,56.96347427368164,-16.515053373082353,-10.65165536984119,27,-232,478,9,10,7,11,
654,393,-210,-102,732,768.3280639648438,17.687206268310547,64.09007263183594,-15.861966776362848,-7.628868207923124,22,-276,914,9,11,10,11,
655,393,-215,-99,741,777.88623046875,17.71294403076172,65.2721939086914,-16.04486795117005,-7.311746937162559,-67,-166,385,9,7,9,8,
656,409,-208,-67,734,765.8387451171875,16.577022552490234,72.14227294921875,-15.759357977907065,-5.018982180742873,-67,26,671,9,7,10,11,
657,409,-235,-152,761,810.8328857421875,20.189964294433594,57.10124588012695,-16.847505402884924,-10.804680574057826,-23,-90,288,7,8,6,5,
658,409,-231,-125,720,766.4111328125,20.039613723754883,61.57755661010742,-17.54199904818341,-9.386752088994829,101,-52,-893,10,9,10,8,
659,409,-234,-58,684,725.2420043945312,19.413301467895508,76.07597351074219,-18.823316631070224,-4.58703115404399,228,-144,-620,10,5,9,8,
660,409,-226,-93,743,782.1598510742188,18.204910278320312,67.62930297851562,-16.794715566361514,-6.828710967219865,42,-120,-261,10,6,9,7,
661,419,-233,-90,774,813.3049926757812,17.8833065032959,68.87686920166016,-16.647658249544957,-6.353339691481178,37,-74,913,7,7,9,12,
662,419,-193,-187,812,855.31396484375,18.310014724731445,45.900634765625,-13.040993484419415,-12.628764748308086,35,-226,987,9,7,9,10,
663,419,-215,-83,700,736.9627075195312,18.221254348754883,68.8878173828125,-16.962034608559794,-6.466624502333177,77,-31,821,12,7,14,13,
664,419,-225,-85,724,762.9063110351562,18.37490463256836,69.30128479003906,-17.153029397178553,-6.396950716638202,38,-197,-148,9,8,9,12,
665,419,-213,-112,726,764.8457641601562,18.33697509765625,62.26015853881836,-16.169956507757764,-8.42037166194601,-112,-238,-575,7,6,6,5,
666,415,-237,-93,716,759.9171142578125,19.57218360900879,68.57141876220703,-18.172330871177685,-7.029581319708751,-57,-248,-619,10,8,7,10,
667,415,-230,-104,678,723.4638671875,20.418312072753906,65.66539001464844,-18.536877803657653,-8.265066481346503,8,-316,402,12,9,13,11,
668,415,-214,-91,759,793.8248901367188,17.032014846801758,66.95983123779297,-15.63932680860649,-6.582564184358293,-181,-145,1260,10,10,11,9,
669,415,-213,-94,704,741.4991455078125,18.297441482543945,66.18408203125,-16.69374124680267,-7.282994384652597,-223,-142,428,9,8,10,10,
670,415,-204,-109,696,733.425537109375,18.380525588989258,61.880306243896484,-16.149634067048286,-8.546827596750157,-300,47,46,7,8,8,8,
671,406,-219,-93,732,769.6973266601562,18.00406265258789,66.98780059814453,-16.5306023467676,-6.939816925705575,-89,-114,846,9,5,9,11,
672,406,-212,-93,727,762.9691772460938,17.661115646362305,66.31058502197266,-16.132631987600774,-7.0013198536787735,-156,-200,-76,8,12,12,11,
673,406,-204,-81,760,791.0606689453125,16.10685920715332,68.34071350097656,-14.944401283700603,-5.877054057995838,-253,-11,-102,5,8,10,10,
674,406,-231,-119,713,758.8748168945312,20.021997451782227,62.741207122802734,-17.72195148585962,-9.021849546862668,-120,-136,-557,7,9,6,8,
675,406,-213,-165,704,753.7970581054688,20.940658569335938,52.2331428527832,-16.413616023619014,-12.643951875793086,-40,-389,891,10,12,10,9,
676,422,-234,-108,707,752.5084838867188,20.02610969543457,65.22148895263672,-18.11709131218154,-8.251583830349848,-35,-312,894,7,8,9,7,
677,422,-219,-115,753,792.5875244140625,18.18306541442871,62.29193115234375,-16.040107230051042,-8.34274478676587,-182,-200,-218,6,9,8,7,
678,422,-230,-136,728,775.4869384765625,20.152759552001953,59.40043640136719,-17.252775844890838,-10.10040476703097,-79,-246,2,5,7,9,8,
679,422,-267,-150,736,797.1731567382812,22.590225219726562,60.66930389404297,-19.568495179836937,-10.845709019391501,-37,-146,-238,5,9,6,7,
680,423,-230,-122,724,769.3893432617188,19.7767391204834,62.053497314453125,-17.393850044324587,-9.123747366242721,54,-174,-491,6,12,7,8,
681,423,-208,-90,743,776.796630859375,16.9610538482666,66.59889221191406,-15.53139497922294,-6.653256460093014,-2,-161,145,6,5,8,8,
682,423,-237,-102,765,807.340087890625,18.635995864868164,66.7105941772461,-17.07100436003703,-7.25819250749443,285,-170,748,11,5,8,10,
683,423,-254,-127,758,809.4498291015625,20.536142349243164,63.431514739990234,-18.28798714746607,-9.0268149125851,307,-18,1062,12,7,10,10,
684,423,-238,-148,767,816.6008911132812,20.070398330688477,58.12104797363281,-16.944908075996548,-10.4419415599584,230,-137,-303,14,9,10,9,
685,417,-214,-69,729,762.887939453125,17.139423370361328,72.12594604492188,-16.290825853876377,-5.189253431398027,176,-93,-635,7,12,8,5,
686,417,-237,-120,732,778.71240234375,19.94414520263672,63.14212417602539,-17.718976232414338,-8.864634172988646,95,-320,-419,8,11,7,9,
687,417,-213,-97,756,791.4000244140625,17.19964599609375,65.51214599609375,-15.613293494495348,-7.040309220254593,-187,-115,-89,8,13,8,8,
688,417,-220,-128,742,784.4412231445312,18.93132209777832,59.8048210144043,-16.287327592143686,-9.391144551321618,122,-271,430,7,8,8,9,
689,417,-236,-78,774,812.9304809570312,17.80133628845215,71.70764923095703,-16.8763796382126,-5.505952333875576,73,-213,822,8,12,7,6,
690,420,-201,-105,750,783.5343017578125,16.821269989013672,62.41449737548828,-14.864259674649505,-7.701271253751053,-106,-52,683,12,17,11,9,
691,420,-189,-123,715,749.7166137695312,17.502294540405273,56.9405403137207,-14.601533230938655,-9.442747944408271,-118,-263,311,8,10,11,11,
692,420,-192,-100,726,757.5882568359375,16.60152244567871,62.484519958496094,-14.680919373423672,-7.585053885598616,-149,-541,-130,15,6,7,12,
693,420,-210,-98,727,763.0419311523438,17.678266525268555,64.97972106933594,-15.974781307787845,-7.379068527256186,-81,-40,-385,9,7,9,13,
694,420,-207,-107,752,787.2750244140625,17.214290618896484,62.66172790527344,-15.244122919354918,-7.811350453407707,-112,-162,31,5,14,7,7,
695,437,-199,-135,781,817.182373046875,17.111480712890625,55.84368896484375,-14.09436934210285,-9.50895793332932,-38,-101,430,8,7,7,7,
696,437,-240,-99,715,760.6746826171875,19.953933715820312,67.58053588867188,-18.391567081224665,-7.478122649886845,87,-79,246,10,9,6,7,
697,437,-240,-108,729,775.0516357421875,19.84831428527832,65.76889038085938,-18.038548752636316,-8.009978346324594,-65,166,50,7,8,7,6,
698,437,-189,-97,723,753.564208984375,16.37213134765625,62.82840347290039,-14.525336157597605,-7.395725546897642,-128,75,457,8,13,11,9,
699,437,-220,-155,711,760.2276000976562,20.729995727539062,54.82986831665039,-16.821261450121053,-11.764312495334497,79,-206,155,9,17,9,12,
700,430,-225,-85,706,745.8458251953125,18.810861587524414,69.30128479003906,-17.557990343878213,-6.543906712293967,-77,-345,507,11,11,10,9,
701,430,-204,-66,699,731.14501953125,17.050689697265625,72.06890106201172,-16.201391354726322,-5.179104102927923,-129,-125,465,7,9,7,10,
702,430,-198,-84,748,778.3084106445312,16.03998374938965,67.0079574584961,-14.73790869390073,-6.195793437430816,-261,-186,-12,8,18,5,6,
703,430,-210,-127,751,790.082275390625,18.094524383544922,58.83247375488281,-15.414203333860277,-9.25001088942497,-131,111,-189,8,11,6,7,
704,430,-183,-160,782,818.90966796875,17.265546798706055,48.832374572753906,-12.91280024389636,-11.26702531228984,72,167,413,12,10,9,8,
705,441,-216,-68,688,724.309326171875,18.216514587402344,72.52205657958984,-17.350431202006956,-5.387006671729388,255,149,30,11,10,11,11,
706,441,-235,-83,729,770.4252319335938,18.872177124023438,70.54398345947266,-17.759750057244617,-6.184633006435867,106,-141,108,11,7,10,9,
707,441,-205,-121,737,774.4901733398438,17.897993087768555,59.44547653198242,-15.348548778962133,-8.988244271992375,-101,-153,119,7,6,8,8,
708,441,-212,-134,772,811.7166748046875,17.995237350463867,57.70042037963867,-15.139785939910245,-9.502011203694341,-151,52,-78,6,8,8,9,
709,441,-222,-111,736,776.7245483398438,18.63370132446289,63.431514739990234,-16.607607971079425,-8.216143663098995,-47,-28,852,8,14,12,9,
710,450,-246,-82,705,751.1757202148438,20.192012786865234,71.56185150146484,-19.116293894188225,-6.267022571454265,36,-64,608,8,6,10,7,
711,450,-212,-136,722,764.6724853515625,19.229467391967773,57.315826416015625,-16.095719842446073,-10.244781759511609,-110,-82,-722,9,10,10,7,
712,450,-225,-90,707,747.3781127929688,18.917646408081055,68.19529724121094,-17.52082641561032,-6.916399047049312,0,-166,-45,11,7,10,8,
713,450,-204,-92,698,732.99658203125,17.77422523498535,65.7221908569336,-16.159343241912456,-7.210334493750706,-153,-189,351,7,8,10,11,
714,450,-204,-51,736,765.4495239257812,15.942684173583984,75.960693359375,-15.456699891366327,-3.82030544662071,-207,42,-161,7,11,10,11,
715,437,-207,-140,776,815.245361328125,17.84816551208496,55.92472457885742,-14.709083444610112,-9.88827134894578,-105,16,468,10,9,8,10,
716,437,-227,-123,702,747.971923828125,20.19049072265625,61.54545211791992,-17.667180996989224,-9.464976034460282,112,-231,563,12,11,11,9,
717,437,-216,-117,713,754.1312866210938,19.00843620300293,61.55358123779297,-16.64388362697079,-8.925229041663275,-58,-412,285,7,10,9,6,
718,437,-214,-75,704,739.6195068359375,17.851886749267578,70.6828842163086,-16.818325103984485,-5.819995535063009,-88,-153,767,8,7,7,6,
719,437,-214,-88,748,782.9712524414062,17.186832427978516,67.64348602294922,-15.861792351102517,-6.45324396802939,25,-110,-175,8,8,10,10,
720,448,-224,-150,777,822.4384765625,19.132434844970703,56.18838882446289,-15.804797094283977,-10.508679322271563,-232,-290,-311,9,6,9,7,
721,448,-216,-162,773,818.7973022460938,19.251632690429688,53.1263542175293,-15.29575330857939,-11.41132924390121,-103,44,-219,7,7,9,8,
722,448,-249,-131,741,792.6177978515625,20.78970718383789,62.24747848510742,-18.309440207600705,-9.51321679253369,121,93,-54,8,7,12,11,
723,448,-203,-63,749,778.574951171875,15.840685844421387,72.75537872314453,-15.113545697214711,-4.641280426417313,-56,-18,914,11,6,11,10,
724,448,-207,-117,773,808.7440795898438,17.09590721130371,60.520591735839844,-14.830027354253348,-8.318097976157928,-203,-220,-26,10,7,9,9,
725,453,-215,-113,767,804.5390014648438,17.569355010986328,62.27095031738281,-15.499726894747182,-8.07406629015804,-190,-2,-362,7,6,7,6,
726,453,-216,-136,745,787.51318359375,18.910181045532227,57.800662994384766,-15.91917853812673,-9.944579627658152,-25,219,-741,7,6,8,6,
727,453,-260,-92,723,773.817138671875,20.877914428710938,70.5106430053711,-19.63315714505569,-6.828111111855043,333,-10,91,8,7,10,11,
728,453,-231,-159,732,783.8788452148438,20.95998191833496,55.456241607666016,-17.13885384438094,-11.702936102484767,64,-267,908,8,8,12,8,
729,452,-221,-83,706,744.4232788085938,18.486780166625977,69.41228485107422,-17.269951716261847,-6.401543827268864,48,-231,743,8,8,8,8,
730,452,-220,-85,729,766.2023315429688,17.925554275512695,68.87200164794922,-16.686236603987343,-6.369318239766642,-90,-221,474,7,10,11,7,
731,452,-226,-109,716,758.691650390625,19.310224533081055,64.24853515625,-17.330389397590803,-8.260175747369193,57,40,-431,8,8,9,8,
732,452,-221,-124,738,780.2954711914062,18.949094772338867,60.700313568115234,-16.452840192621547,-9.143876031168482,146,-163,38,7,9,11,12,
733,452,-214,-140,743,785.7766723632812,18.99039077758789,56.80342483520508,-15.803677587579644,-10.263049828619012,-57,-278,-409,10,7,11,10,
734,453,-201,-85,687,720.8294067382812,17.62094497680664,67.07386779785156,-16.19131015936152,-6.772058944927366,-144,-269,-390,9,7,7,9,
735,453,-219,-71,736,771.1666259765625,17.367599487304688,72.03407287597656,-16.4982052544299,-5.282605908509588,-45,-190,-446,7,7,9,8,
736,453,-216,-114,764,802.0897827148438,17.726051330566406,62.172428131103516,-15.622411182262788,-8.171045425275883,-139,-52,977,8,6,6,7,
737,453,-223,-165,795,842.0089111328125,19.23374366760254,53.498146057128906,-15.357612397544402,-11.300805027741404,51,14,725,10,8,11,13,
738,453,-207,-120,753,790.0999755859375,17.625652313232422,59.89514923095703,-15.188302468715785,-8.735862659475037,-232,-69,567,9,7,9,9,
739,462,-225,-86,714,753.5363159179688,18.6402645111084,69.07876586914062,-17.373061392823423,-6.553363047839385,-175,-210,-130,9,12,7,7,
740,462,-213,-92,772,806.1123046875,16.725631713867188,66.63594055175781,-15.321274575008909,-6.553333298543594,-184,-31,-333,9,10,13,11,
741,462,-225,-125,746,789.1552734375,19.033763885498047,60.941890716552734,-16.56572299539437,-9.113877601246553,-21,64,-582,9,10,14,15,
742,462,-224,-166,781,829.2725830078125,19.64368438720703,53.45518112182617,-15.67118469117197,-11.5472183199388,-139,-128,-153,10,10,12,12,
743,462,-222,-95,741,779.352294921875,18.047311782836914,66.82923126220703,-16.54999752021858,-7.001544162194255,-97,52,573,10,9,16,16,
744,446,-259,-72,738,785.435546875,20.012428283691406,74.46136474609375,-19.253805286013176,-5.25962403549378,45,0,1237,10,12,16,18,
745,446,-223,-165,726,777.1936645507812,20.909900665283203,53.498146057128906,-16.674234738245644,-12.257306852425577,9,-576,515,13,11,12,14,
746,446,-179,-185,769,810.9420166015625,18.505802154541016,44.051631927490234,-12.75196824563944,-13.18698684668029,1,-513,-966,16,18,15,17,
747,446,-224,-141,802,844.5477905273438,18.262243270874023,57.80745315551758,-15.38066103258463,-9.610721480062402,-107,-43,-578,15,12,13,15,
748,446,-220,-75,719,755.6361694335938,17.912460327148438,71.17208099365234,-16.92654261926387,-5.6962208915823,-57,-28,186,15,11,14,14,
749,449,-219,-116,684,727.5115356445312,19.914220809936523,62.08723831176758,-17.51924735561703,-9.174837242622095,-18,-225,-606,11,11,13,15,
750,449,-214,-140,722,765.9503784179688,19.501638412475586,56.80342483520508,-16.22388868133093,-10.531697629692479,-3,-214,1088,12,13,15,17,
751,449,-219,-94,747,784.0956420898438,17.692514419555664,66.7665023803711,-16.218589482882365,-6.885369386605106,-150,-216,1272,11,10,9,10,
752,449,-213,-69,714,748.2820434570312,17.408329010009766,72.04741668701172,-16.538049912655612,-5.290829848579303,-149,-214,374,11,7,9,8,
753,449,-221,-101,744,782.6736450195312,18.084579467773438,65.43557739257812,-16.40143379863094,-7.414401329144107,-77,-20,-756,8,7,10,9,
754,461,-202,-108,783,815.8167724609375,16.304141998291016,61.865169525146484,-14.33581101617125,-7.607299333576642,-184,220,-329,11,5,9,8,
755,461,-236,-90,723,765.8491821289062,19.25467872619629,69.12208557128906,-17.9480568387878,-6.748800505803276,146,305,226,7,7,16,15,
756,461,-213,-89,678,716.2220458984375,18.800642013549805,67.31953430175781,-17.30113643647777,-7.138205152141705,97,-584,-1220,8,9,10,12,
757,461,-221,-33,735,768.2154541015625,16.907846450805664,81.50436401367188,-16.719094361690566,-2.4619950926089964,9,254,992,15,15,15,15,
758,461,-216,-162,768,814.07861328125,19.3676815032959,53.1263542175293,-15.386600303330844,-11.4783696815655,-160,183,1342,16,15,16,18,
759,473,-239,-180,777,832.6163330078125,21.058244705200195,53.011451721191406,-16.68124454762388,-12.485116612781635,-40,0,303,17,12,14,11,
760,473,-222,-96,724,763.3321533203125,18.47089195251465,66.61143493652344,-16.907661704249655,-7.224900123925618,-128,-195,625,11,9,12,10,
761,473,-222,-97,717,756.8236083984375,18.667442321777344,66.39435577392578,-17.057497171836523,-7.3636973001743256,-122,-58,-902,9,9,11,9,
762,473,-226,-112,728,770.45703125,19.107566833496094,63.63468933105469,-17.057567447885774,-8.358605295834957,-35,-161,-662,6,10,10,7,
763,473,-233,-173,825,874.5530395507812,19.377830505371094,53.40277862548828,-15.451454050903878,-11.409234739964146,-244,125,-460,5,10,10,12,
764,469,-215,-151,730,775.8389282226562,19.79180145263672,54.91495895385742,-16.088355647270905,-11.222995201344608,-190,98,1059,7,9,13,17,
765,469,-266,-79,751,800.62353515625,20.276464462280273,73.4558334350586,-19.404855082172336,-5.662766558442786,10,191,487,7,8,12,11,
766,469,-232,-132,729,776.3304443359375,20.108137130737305,60.35808563232422,-17.38805259273733,-9.78960302067047,11,-375,809,9,7,12,11,
767,469,-246,-164,713,771.8685302734375,22.520015716552734,56.30628204345703,-18.584755736108065,-12.267223304132045,135,-170,245,9,10,11,10,
768,470,-211,-141,705,749.2843017578125,19.795045852661133,56.24365997314453,-16.355843189640648,-10.846564845787649,140,-296,-933,8,8,10,9,
769,470,-192,-58,724,751.2682495117188,15.48208999633789,73.18816375732422,-14.807234403704822,-4.427799522737748,-356,-356,-610,6,7,11,11,
770,470,-229,-168,771,821.6483154296875,20.220394134521484,53.73159408569336,-16.18311167907337,-11.79830153033943,-87,-140,-269,13,10,12,10,
771,470,-228,-114,705,749.669921875,19.876750946044922,63.431514739990234,-17.70606174539513,-8.746726884842962,-91,-54,409,9,6,9,8,
772,470,-223,-69,693,731.2584838867188,18.613536834716797,72.80387878417969,-17.755379519314253,-5.414362858362011,-27,81,1601,7,5,8,6,
773,486,-240,-75,727,769.2554931640625,19.07676124572754,72.64280700683594,-18.179196677062695,-5.595047095925916,-39,-291,-387,8,7,10,8,
774,486,-216,-70,727,761.6331176757812,17.342689514160156,72.04065704345703,-16.47524861358179,-5.273369150796382,-238,-11,904,11,6,8,10,
775,486,-177,-120,812,839.686279296875,14.751846313476562,55.86039352416992,-12.168829233074597,-8.21630077737637,-522,203,-232,10,8,8,6,
776,486,-236,-112,766,809.3182373046875,18.82874298095703,64.60868835449219,-16.953977497050783,-7.954582381993979,-248,-274,-687,10,7,12,11,
777,486,-247,-119,790,836.2236328125,19.137367248535156,64.27268981933594,-17.180056789362343,-8.181331267101685,93,52,745,6,7,7,7,
778,477,-203,-114,729,765.2750854492188,17.709712982177734,60.67894744873047,-15.382645134461217,-8.567011582472437,-206,1,-2349,9,8,9,8,
779,477,-208,-79,742,774.6412353515625,16.68979835510254,69.19956970214844,-15.575706045155728,-5.853354490113473,-13,219,1976,18,11,11,13,
780,477,-208,-193,834,880.9478149414062,18.787513732910156,47.13831329345703,-13.657023577933264,-12.655133325434308,-175,-158,-434,14,6,10,10,
781,477,-235,-166,741,794.8974609375,21.218259811401367,54.75956726074219,-17.19565518229384,-12.05391103203768,209,-151,694,11,11,8,9,
782,477,-231,-148,728,777.9774780273438,20.646726608276367,57.348995208740234,-17.27292987253641,-10.966607552978912,52,-219,688,7,8,9,10,
783,485,-213,-114,681,722.5828857421875,19.53034019470215,61.84033203125,-17.144098599919513,-9.077330191906473,-213,-73,-970,12,5,9,8,
784,485,-235,-80,731,772.0012817382812,18.755117416381836,71.19690704345703,-17.722288725359387,-5.94805462359356,16,-112,-653,4,6,8,6,
785,485,-216,-104,699,738.967529296875,18.928125381469727,64.28662109375,-16.99568717254441,-8.09048983339507,0,-211,288,8,6,8,9,
786,485,-222,-61,729,764.4906616210938,17.524690628051758,74.63263702392578,-16.881271056977806,-4.576591922696973,165,-71,131,10,7,10,9,
787,485,-213,-75,709,744.0933837890625,17.66468620300293,70.59896087646484,-16.633843725105255,-5.784882664372763,-237,114,866,10,8,10,12,
788,490,-204,-103,686,723.0635986328125,18.42240333557129,63.20726013183594,-16.387541181246384,-8.189609042244724,-177,-90,146,12,9,10,10,
789,490,-237,-93,692,737.3479614257812,20.197019577026367,68.57141876220703,-18.74895530159021,-7.245883602682881,94,-205,43,10,9,10,10,
790,490,-219,-45,746,778.7824096679688,16.68126106262207,78.3855209350586,-16.33232769825636,-3.3125389659690736,184,-618,351,7,8,8,6,
791,490,-250,-128,729,781.2329711914062,21.06821632385254,62.884098052978516,-18.663346003901964,-9.4300614185097,306,-366,-636,11,8,9,9,
792,490,-217,-120,732,772.8602905273438,18.712038040161133,61.054100036621094,-16.30647670294941,-8.932304525464764,309,159,-32,9,11,10,10,
793,484,-216,-116,740,779.558837890625,18.328996658325195,61.759063720703125,-16.085994311534336,-8.55751334194777,-120,-110,782,7,7,8,10,
794,484,-225,-82,732,770.17724609375,18.11358070373535,69.97277069091797,-16.986150697359953,-6.111808397026848,-78,-77,-114,8,5,7,6,
795,484,-223,-105,756,795.1666259765625,18.055713653564453,64.78311157226562,-16.286727131409734,-7.587942427161054,-29,-319,2,11,10,12,7,
796,484,-220,-134,767,809.1013793945312,18.5624942779541,58.65119552612305,-15.77775235476957,-9.533011705156905,-203,-65,635,9,7,10,10,
797,484,-226,-174,805,854.0357055664062,19.50786781311035,52.40313720703125,-15.344727040135005,-11.755665071295837,-409,-218,168,12,8,8,10,
798,488,-243,-104,764,808.4312133789062,19.081911087036133,66.82653045654297,-17.492572693934356,-7.391253950109484,-143,-187,-973,7,10,9,10,
799,488,-261,-89,722,772.86865234375,20.901575088500977,71.16761016845703,-19.736984344951036,-6.612588192652303,16,-32,332,5,11,9,9,
800,488,-219,-177,753,803.92724609375,20.501266479492188,51.050392150878906,-15.80788796258221,-12.718969924180982,-73,-157,-335,11,8,9,8,
801,488,-263,-150,702,764.5083618164062,23.328317642211914,60.29852294921875,-20.121492842225496,-11.315097527772913,13,-653,332,12,10,11,8,
802,488,-257,-67,705,753.3677978515625,20.64051055908203,75.38511657714844,-19.94603019107334,-5.102283146795435,147,44,444,9,12,10,9,
803,496,-265,-74,715,766.1109619140625,21.045116424560547,74.3947525024414,-20.23692171110673,-5.542941889304429,42,69,-463,8,14,11,11,
804,496,-228,-82,708,748.312744140625,18.890277862548828,70.21568298339844,-17.739239809861875,-6.2910962635531815,-6,15,899,9,11,11,10,
805,496,-219,-93,711,749.7539672851562,18.500152587890625,66.98780059814453,-16.983471635994896,-7.12536034111115,-111,-263,431,13,10,11,8,
806,496,-225,-99,721,761.7525634765625,18.824146270751953,66.24715423583984,-17.179815191866155,-7.467480698187079,-97,-235,-271,12,8,12,9,
807,483,-228,-66,737,774.2796630859375,17.849702835083008,73.85253143310547,-17.125593816738636,-4.889855751689248,6,-216,59,12,10,10,8,
808,483,-203,-110,774,807.7035522460938,16.60789680480957,61.54449462890625,-14.556219209407658,-7.8273555025305095,-47,-113,-130,10,8,11,10,
809,483,-222,-154,764,810.3677978515625,19.473825454711914,55.24751663208008,-15.899431413197423,-10.954952919562574,-162,-83,277,11,8,11,10,
810,483,-216,-99,738,775.3070068359375,17.84437370300293,65.37305450439453,-16.176624528043597,-7.336204395497378,-89,76,8,8,7,9,9,
811,483,-225,-105,741,781.4927978515625,18.522857666015625,64.97972106933594,-16.732903248505792,-7.721511851269065,56,-354,-312,9,12,13,14,
812,507,-222,-69,767,801.4573974609375,16.859766006469727,72.73103332519531,-16.08096089966985,-4.93888862442517,-159,-345,683,7,11,14,14,
813,507,-239,-163,756,809.4603271484375,20.93789291381836,55.70201110839844,-17.17303598086793,-11.617010384806218,167,-194,732,11,9,11,7,
814,507,-210,-147,777,818.19189453125,18.255966186523438,55.00428771972656,-14.872177794152204,-10.350215630578496,48,92,-301,11,10,13,8,
815,507,-225,-80,732,769.9668579101562,18.065664291381836,70.42364501953125,-16.990932627220307,-5.963827552058574,-46,-190,-585,8,8,7,9,
816,507,-233,-115,740,784.2920532226562,19.345510482788086,63.72736740112305,-17.282498193954844,-8.431625533674172,7,-149,272,12,10,9,8,
817,506,-219,-126,704,747.9658813476562,19.74057960510254,60.082820892333984,-17.025308586994992,-9.698110656484367,-53,-262,-368,11,10,12,11,
818,506,-210,-125,735,774.5643920898438,18.389814376831055,59.23371887207031,-15.730932048241973,-9.287065253229256,-45,-368,229,14,12,14,17,
819,506,-230,-154,771,819.1806640625,19.74652099609375,56.191463470458984,-16.306066836940605,-10.83566434298726,-110,-191,689,16,14,13,12,
820,506,-245,-84,732,776.4696044921875,19.48297882080078,71.0721435546875,-18.392855539636955,-6.2105240829995365,-21,-48,206,9,9,8,10,
821,506,-225,-125,715,759.9177856445312,19.796152114868164,60.941890716552734,-17.222590421487528,-9.467695034223565,56,-238,202,14,11,15,19,
822,515,-221,-100,728,767.3493041992188,18.426105499267578,65.6504135131836,-16.738521229005613,-7.488011590374832,-21,-100,-1363,13,10,10,11,
823,515,-204,-116,702,740.1864624023438,18.48235321044922,60.37273025512695,-15.998144716211925,-9.01640574306916,-14,-321,340,6,12,10,9,
824,515,-225,-73,739,775.9349365234375,17.747177124023438,72.02144622802734,-16.8563259577127,-5.398373706263761,-17,-70,141,12,14,13,15,
825,515,-229,-135,759,804.205810546875,19.30011558532715,59.476253509521484,-16.54408331506413,-9.663852609235486,1,88,428,13,16,20,19,
826,515,-212,-138,740,782.0408935546875,18.870168685913086,56.934513092041016,-15.728874153077246,-10.163711136051843,-93,-172,1095,17,12,12,16,
827,504,-213,-98,724,761.0183715820312,17.942123413085938,65.28974914550781,-16.25352682394145,-7.398799058794637,24,-277,117,12,15,15,16,
828,504,-202,-68,723,753.7619018554688,16.423208236694336,71.39183807373047,-15.544643698815525,-5.175927938560614,-103,-162,-516,8,15,13,12,
829,504,-225,-60,737,772.9126586914062,17.532320022583008,75.06548309326172,-16.924219689413302,-4.452260949031645,-92,260,-567,10,10,10,9,
830,504,-243,-178,777,833.3438720703125,21.187761306762695,53.77312469482422,-16.95354922032621,-12.333246994625776,-45,-3,233,14,10,11,11,
831,504,-222,-134,755,798.288818359375,18.95307731628418,58.88109588623047,-16.146532058321114,-9.663363057258142,-69,-31,-276,8,16,12,10,
832,507,-219,-70,698,734.8911743164062,18.229320526123047,72.2711410522461,-17.33771712509893,-5.465835740014852,22,128,48,14,14,12,9,
833,507,-221,-112,740,780.3749389648438,18.508991241455078,63.12123489379883,-16.451117457878155,-8.251629039491226,53,-302,713,14,15,14,17,
834,507,-222,-88,742,779.4818725585938,17.838125228881836,68.3735122680664,-16.54716704405941,-6.482255806093093,50,280,788,12,15,14,15,
835,507,-230,-154,777,824.8302612304688,19.605693817138672,56.191463470458984,-16.191297193182958,-10.760558221274717,48,-240,-169,11,14,16,14,
836,507,-231,-122,718,764.0477905273438,19.991363525390625,62.15626525878906,-17.59802991538156,-9.188083601222615,142,-380,-429,8,10,13,11,
837,513,-234,-110,704,749.9813232421875,20.165224075317383,64.8190689086914,-18.18026950470292,-8.434015543193249,-93,-318,-558,12,13,14,16,
838,513,-231,-117,736,780.2217407226562,19.380849838256836,63.134639739990234,-17.221690548646045,-8.624455825797874,-114,34,340,11,15,18,19,
839,513,-225,-96,711,751.9055786132812,18.984018325805664,66.89033508300781,-17.411943480770656,-7.335295005170862,13,-173,382,10,12,8,10,
840,513,-222,-118,771,810.9556274414062,18.05828094482422,62.00446701049805,-15.887602432666363,-8.366659682528212,21,-355,241,11,12,12,11,
841,513,-228,-63,750,786.4178466796875,17.502710342407227,74.55057525634766,-16.853299314769902,-4.594893521246068,-22,19,887,10,11,9,10,
842,511,-222,-99,759,796.9730224609375,17.75583267211914,65.96234893798828,-16.173920093442387,-7.135714807147112,64,592,185,10,10,8,10,
843,511,-220,-147,723,769.894775390625,20.098758697509766,56.2462158203125,-16.603883817947683,-11.0073651178264,-39,-358,-360,8,11,9,7,
844,511,-223,-104,719,759.9381713867188,18.890073776245117,64.99378967285156,-17.064312065741383,-7.865797554445448,15,-333,-704,8,6,8,7,
845,511,-215,-75,747,780.9346923828125,16.95049476623535,70.76610565185547,-15.980555285121733,-5.511109773256667,23,-121,-99,6,7,7,9,
846,511,-237,-82,739,780.3934936523438,18.74289894104004,70.9115982055664,-17.67954582406782,-6.03149901521218,135,-211,838,11,9,11,8,
847,531,-243,-118,728,776.5030517578125,20.356060028076172,64.09552001953125,-18.236586187305537,-8.740722289656913,169,69,956,13,12,11,13,
848,531,-219,-216,820,875.7950439453125,20.560049057006836,45.39116668701172,-14.480973882878395,-14.27836188301491,26,8,430,12,11,9,9,
849,531,-219,-71,750,784.5393676757812,17.062355041503906,72.03407287597656,-16.20916414778453,-5.192312847701457,29,113,-414,18,16,13,14,
850,531,-234,-77,638,683.9071655273438,21.110441207885742,71.78250885009766,-20.008021902325854,-6.464546046283562,-28,-343,-301,23,11,13,9,
851,531,-213,-132,711,753.8660278320312,19.412446975708008,58.20915985107422,-16.412071656479036,-10.084327559701617,-8,-668,-717,14,14,13,16,
852,523,-212,-80,695,731.0054931640625,18.05549430847168,69.32231140136719,-16.858645050403656,-6.282937352846475,-3,-190,6,18,20,19,22,
853,523,-224,-50,752,786.2442626953125,16.970186233520508,77.41401672363281,-16.55279646313804,-3.6460978578543957,-77,-254,1066,16,22,25,21,
854,523,-224,-58,722,758.1715087890625,17.76752471923828,75.48021697998047,-17.184383671537127,-4.3874046368265125,-123,159,736,13,11,13,11,
855,523,-174,-164,810,844.5543212890625,16.444082260131836,46.69071960449219,-11.889556413958996,-11.19713266740256,128,67,1035,18,16,17,18,
856,523,-188,-197,780,826.1676635742188,19.242820739746094,43.656837463378906,-13.153268010270512,-13.795099134848872,-92,33,-145,15,21,20,23,
857,533,-211,-57,734,765.849853515625,16.579809188842773,74.87973022460938,-15.992464115619121,-4.268306772102329,-22,23,175,13,15,17,16,
858,533,-264,-108,738,791.2041625976562,21.129470825195312,67.74766540527344,-19.491598093405685,-7.845412924572491,30,-509,-460,22,11,18,13,
859,533,-229,-98,696,739.22998046875,19.689481735229492,66.82827758789062,-18.04608111964867,-7.618149899709169,39,-458,-1442,9,12,16,17,
860,533,-204,-162,740,784.5125732421875,19.391328811645508,51.54249572753906,-15.07208366365417,-11.917183691941734,-73,-533,394,19,18,21,20,
861,533,-228,-35,714,750.3366088867188,17.901872634887695,81.26981353759766,-17.68981020542118,-2.6735737472171137,19,-556,1167,14,14,13,11,
862,532,-224,-79,723,761.0164184570312,18.184459686279297,70.57012176513672,-17.118156172028158,-5.958525493662468,-46,-45,1249,8,9,12,10,
863,532,-208,-235,825,882.67431640625,20.82474708557129,41.50815963745117,-13.629793558579724,-15.440430133611772,-81,-1,-230,10,16,6,9,
864,532,-222,-137,731,776.1533203125,19.637727737426758,58.31697082519531,-16.620184681827432,-10.166630867482914,135,7,-326,14,13,10,9,
865,532,-234,-51,688,728.4922485351562,19.19094467163086,77.70171356201172,-18.736198994380754,-4.014424048762751,48,-239,109,7,13,8,7,
866,532,-216,-162,723,771.77001953125,20.475788116455078,53.1263542175293,-16.252810894767297,-12.116907237065524,116,-238,-843,9,11,9,10,
867,520,-211,-108,735,772.27587890625,17.872119903564453,62.89098358154297,-15.85587252657271,-8.038958292479705,-77,-289,-800,10,16,11,9,
868,520,-219,-97,731,769.2405395507812,18.139842987060547,66.10701751708984,-16.54070096628584,-7.24419136342076,61,-274,1038,12,12,13,16,
869,520,-207,-90,755,788.01904296875,16.642683029174805,66.49808502197266,-15.229381584846756,-6.558086488939294,-100,-131,627,8,17,11,10,
