step,tof,accX,accY,accZ,acc,incl,orient,roll,pitch,gyroX,gyroY,gyroZ,mic0,mic1,mic2,mic3,
0,29,-225,-85,740,778.106689453125,18.003459930419922,69.30128479003906,-16.8078787781563,-6.271479108742757,-21,-150,140,5,1,1,1,
1,29,-225,-79,735,772.7166137695312,17.973188400268555,70.65003204345703,-16.92864277488185,-5.867984302174099,17,-144,117,5,2,2,3,
2,29,-224,-81,737,774.5360107421875,17.908491134643555,70.11640930175781,-16.81039117297862,-6.002896673485741,-13,-96,119,3,2,2,2,
3,29,-222,-83,734,771.31640625,17.893129348754883,69.49728393554688,-16.727465160887586,-6.1774592787300096,-43,-150,135,5,4,4,4,
4,29,-220,-84,735,771.8037109375,17.763113021850586,69.09896087646484,-16.561631823971915,-6.248218117679004,-38,-143,137,5,2,2,3,
5,27,-223,-86,730,768.130859375,18.12677574157715,68.90758514404297,-16.876822784034225,-6.4283186158861225,-49,-160,118,4,3,3,3,
6,27,-219,-130,740,782.598876953125,18.98930549621582,59.30276107788086,-16.250467335105917,-9.56190835616785,11,2074,-1448,8,11,6,4,
7,27,-231,-35,723,759.8125,17.906038284301758,81.3814468383789,-17.699357812142672,-2.6402069091795797,50,6577,1925,28,10,15,12,
8,27,-216,-126,741,782.056884765625,18.64580535888672,59.74001693725586,-16.033225284487756,-9.27153921753836,-85,5516,1290,27,11,12,10,
9,25,-177,-102,582,616.8119506835938,19.33938980102539,60.0428466796875,-16.676007842469595,-9.518522483140641,-289,-977,-1388,77,36,38,30,
10,25,-219,-164,724,773.9722290039062,20.699565887451172,53.168235778808594,-16.43670105430013,-12.233363317812037,59,-151,592,49,20,24,18,
11,25,-240,-51,737,776.7689208984375,18.41130256652832,78.00009155273438,-17.997300556658264,-3.7645534837760506,3,-569,1233,10,7,10,8,
12,25,-239,-12,690,730.3184204101562,19.1251277923584,87.1229019165039,-19.10222005267984,-0.9414801454878315,73,-553,-774,13,11,11,8,
13,25,-247,-125,764,812.60693359375,19.915451049804688,63.15381622314453,-17.69560609445892,-8.84870935729763,5,308,-561,13,10,12,10,
14,27,-186,-185,785,827.675048828125,18.47690200805664,45.15045166015625,-12.986759056388086,-12.915727111928062,-179,-126,1342,23,12,16,11,
15,27,-222,-128,716,760.4761962890625,19.6903076171875,60.029720306396484,-16.973080230576652,-9.689898730142325,10,-291,225,12,9,10,6,
16,27,-219,-66,762,795.5884399414062,16.70598793029785,73.22562408447266,-15.977982503088601,-4.75858120938695,-9,468,-114,8,6,10,6,
17,27,-244,-128,668,722.5953369140625,22.41311264038086,62.315467834472656,-19.735085549465726,-10.203173869121754,8,-68,-108,17,11,13,6,
18,27,-228,-68,687,727.0330200195312,19.100086212158203,73.38987731933594,-18.276520879990724,-5.366765974541184,94,-354,-589,16,12,13,12,
19,39,-205,-45,719,749.0066528320312,16.270700454711914,77.61621856689453,-15.884308922043365,-3.4443801092440554,-2,-365,344,13,10,8,7,
20,39,-210,-59,759,789.7227172851562,16.032060623168945,74.30404663085938,-15.421395454915425,-4.284546275990952,37,-123,-197,14,10,10,9,
21,39,-213,-104,759,795.1515502929688,17.34130859375,63.972042083740234,-15.537764504449518,-7.515400413084914,72,373,597,9,8,9,8,
22,39,-212,-207,782,836.2517700195312,20.749591827392578,45.679725646972656,-14.685442293118085,-14.331582365388956,7,-175,186,7,5,6,6,
23,39,-228,-102,730,771.549072265625,18.88673210144043,65.89440155029297,-17.18808503300815,-7.596831117867963,-14,-259,100,14,12,8,9,
24,30,-231,-101,717,760.0335693359375,19.37085723876953,66.38027954101562,-17.694039320025727,-7.636561144618891,-53,-465,226,8,7,6,5,
25,30,-219,-104,729,768.2564697265625,18.3931884765625,64.59420776367188,-16.56249823589405,-7.78010018660837,55,-169,46,8,6,6,5,
26,30,-220,-103,726,765.5618896484375,18.497995376586914,64.90846252441406,-16.700604680944743,-7.732119653760811,-46,-382,-353,9,8,5,5,
27,30,-219,-65,747,781.1497802734375,17.002172470092773,73.46577453613281,-16.281450633807733,-4.77313943100085,-29,-171,-287,8,8,7,8,
28,30,-214,-106,762,798.5462036132812,17.3990535736084,63.64609909057617,-15.544517049980644,-7.628026229546899,-94,-115,600,6,11,7,7,
29,22,-224,-155,739,787.605224609375,20.232046127319336,55.31446838378906,-16.52337193464149,-11.34984116112933,-157,-32,395,8,7,6,5,
30,22,-211,-159,768,812.1736450195312,18.98170280456543,52.99623489379883,-15.057997338273676,-11.289763679238206,-108,-306,103,11,12,7,8,
31,22,-232,-63,711,750.54248046875,18.6792049407959,74.80448913574219,-18.005588458671475,-4.8150325176275945,58,-178,-30,9,11,9,10,
32,22,-228,-114,723,766.621826171875,19.419292449951172,63.431514739990234,-17.302030239571312,-8.551849365305253,69,-221,159,7,15,11,9,
33,22,-213,-93,734,769.9181518554688,17.568016052246094,66.40962219238281,-16.060532979509475,-6.9378166021202565,80,-177,-93,10,10,9,10,
34,27,-213,-168,755,802.258056640625,19.761882781982422,51.73223114013672,-15.396700857450517,-12.087716100949638,-62,-100,314,8,8,11,14,
35,27,-217,-87,752,787.503662109375,17.26788330078125,68.1497802734375,-15.99504823389013,-6.342737057259204,-28,-529,341,6,8,8,10,
36,27,-252,-102,687,738.8348999023438,21.587722778320312,67.96046447753906,-19.942538216606387,-7.935324721620533,138,-937,-68,8,9,6,6,
37,27,-214,-106,723,761.42041015625,18.276758193969727,63.64609909057617,-16.323101625213702,-8.002337713381007,80,-328,-222,9,6,7,8,
38,27,-216,-78,715,750.9760131835938,17.804443359375,70.14154815673828,-16.71586287498792,-5.961768673628816,61,419,330,9,10,7,7,
39,30,-228,-79,725,764.1007690429688,18.406652450561523,70.88603210449219,-17.36092596575337,-5.934386879518998,60,-582,343,12,12,10,12,
40,30,-223,-78,756,792.0536499023438,17.35172462463379,70.71818542480469,-16.352531207448354,-5.651543838470507,-13,-785,164,11,14,14,14,
41,30,-212,-132,768,807.5840454101562,18.011205673217773,58.08829116821289,-15.219130602635463,-9.407231460291223,-153,14,-86,10,11,12,11,
42,30,-219,-105,707,747.5526733398438,18.956647872924805,64.381103515625,-17.035007285180846,-8.074368677689186,-54,-315,293,11,10,11,12,
43,30,-237,-143,711,762.9803466796875,21.269439697265625,58.89067077636719,-18.09683922464434,-10.802426555904294,-20,-391,234,8,11,11,12,
44,36,-217,-76,756,790.1904907226562,16.914047241210938,70.6949691772461,-15.93921077895779,-5.519201925898327,18,-214,409,6,6,6,7,
45,36,-250,-111,768,815.2576293945312,19.60201072692871,66.055419921875,-17.857551606891047,-7.825313756049324,135,-73,171,7,5,8,10,
46,36,-240,-163,769,821.9063110351562,20.667831420898438,55.81329345703125,-16.977975598710955,-11.438701549093116,92,-118,3,8,12,8,7,
47,36,-213,-111,695,735.333251953125,19.06271743774414,62.471309661865234,-16.837876044591393,-8.68209832694824,16,-115,287,7,6,9,11,
48,36,-237,-67,703,744.8939819335938,19.30527114868164,74.21125793457031,-18.552054284185225,-5.160482646076245,118,-93,359,6,7,7,8,
49,39,-222,-101,737,776.3079223632812,18.308820724487305,65.5332260131836,-16.61677891748215,-7.475545042810086,197,-201,158,5,6,7,10,
50,39,-213,-171,757,804.7726440429688,19.838895797729492,51.238121032714844,-15.34740603264465,-12.26786544017469,-87,-455,-9,8,9,9,6,
51,39,-228,-174,749,802.0355224609375,20.951000213623047,52.646888732910156,-16.515617188613337,-12.529836932322281,-100,-36,-44,7,10,9,6,
52,39,-218,-76,720,756.1084594726562,17.776309967041016,70.77700805664062,-16.75730935676854,-5.768808824990208,-38,-50,55,7,8,9,10,
53,39,-223,-75,705,743.2220458984375,18.452899932861328,71.40782928466797,-17.4603013534619,-5.791688159885238,-94,-91,-106,8,10,7,8,
54,43,-210,-111,741,778.1400756835938,17.771364212036133,62.13688278198242,-15.656786179443873,-8.201094212071222,-59,-108,982,7,9,10,11,
55,43,-240,-98,724,769.0123291015625,19.698476791381836,67.78485870361328,-18.185145271513164,-7.321464208302369,-23,-272,874,8,10,13,14,
56,43,-192,-153,741,780.611328125,18.328779220581055,51.445735931396484,-14.238637814144996,-11.303160603031083,-202,53,-8,9,8,10,9,
57,43,-225,-101,723,763.90771484375,18.83340072631836,65.82185363769531,-17.129847588564946,-7.597603053860988,-147,16,-15,10,15,13,14,
58,43,-216,-115,732,771.8192749023438,18.48255729675293,61.96535873413086,-16.251745364188995,-8.568899027284228,-133,18,-903,13,12,18,14,
59,46,-221,-84,717,754.9741821289062,18.247468948364258,69.18540954589844,-17.021183160617145,-6.388074308843958,-35,-113,87,12,15,14,14,
60,46,-223,-89,698,738.1422729492188,18.980548858642578,68.23960876464844,-17.58436583599635,-6.925171065397581,-49,-187,385,11,8,10,9,
61,46,-231,-94,730,771.42529296875,18.85984230041504,67.85398864746094,-17.42431439320761,-6.999020073639925,52,-23,745,10,13,10,10,
62,46,-213,-97,728,764.6973266601562,17.820112228393555,65.51214599609375,-16.173180814400364,-7.287463344859258,-166,-20,747,15,15,18,17,
63,48,-235,-144,768,815.9564819335938,19.739336013793945,58.497867584228516,-16.73858890958076,-10.16479632837147,-62,-182,270,10,12,10,9,
64,48,-212,-78,707,742.2108764648438,17.717082977294922,69.79693603515625,-16.596696017904975,-6.032433991782212,-113,-243,-157,10,9,12,7,
65,48,-221,-78,721,758.1332397460938,18.004615783691406,70.5567398071289,-16.9481090452585,-5.905285133140425,-164,-243,-1015,9,8,6,8,
66,48,-194,-87,741,770.8994750976562,16.007558822631836,65.84261322021484,-14.575413875922035,-6.479930598832538,-108,35,119,9,6,8,10,
67,48,-240,-147,761,811.3753662109375,20.293869018554688,58.50894546508789,-17.205157565083937,-10.438140667631375,8,-348,626,7,6,7,7,
68,52,-204,-70,709,741.0782470703125,16.917449951171875,71.05778503417969,-15.978377269396587,-5.4200653371500165,-213,-160,336,6,7,8,6,
69,52,-176,-85,702,728.700927734375,15.556063652038574,64.21815490722656,-13.976606345160047,-6.698569358301416,-39,51,582,9,12,11,10,
70,52,-222,-84,694,733.4684448242188,18.879512786865234,69.27117919921875,-17.61813025558027,-6.5761910507349155,-91,61,946,11,9,8,9,
71,52,-231,-107,699,743.916015625,20.009723663330078,65.14288330078125,-18.090506624028006,-8.26973244096687,-181,-297,-93,9,9,8,9,
72,52,-242,-165,781,834.1162719726562,20.555452346801758,55.70945739746094,-16.86558392380615,-11.409165032419521,-57,-43,-811,7,10,9,7,
73,44,-225,-90,720,759.6874389648438,18.5997257232666,68.19529724121094,-17.227975230647665,-6.803797203718071,171,-90,-945,5,11,9,9,
74,44,-252,-87,721,768.7092895507812,20.290193557739258,70.95015716552734,-19.13664694365127,-6.498472343004948,249,-191,-340,10,11,9,13,
75,44,-227,-145,706,755.6387939453125,20.881193161010742,57.42729949951172,-17.482114847352577,-11.06313935114737,2,-229,1154,12,13,11,13,
76,44,-223,-105,723,763.860595703125,18.823040008544922,64.78311157226562,-16.97402220990251,-7.900872984435883,-196,-268,1588,9,12,9,7,
77,44,-218,-114,761,799.7755737304688,17.912315368652344,62.38985061645508,-15.817638920185148,-8.194850925493846,-100,-471,989,7,9,11,10,
78,51,-237,-64,720,760.7003173828125,18.825088500976562,74.88507843017578,-18.152967581556506,-4.8261707434708185,-32,-214,-450,12,14,13,13,
79,51,-225,-112,704,747.5192260742188,19.644954681396484,63.53346633911133,-17.51741103008511,-8.617012434440044,110,-120,-1137,10,14,11,8,
80,51,-202,-114,759,793.6504516601562,16.990848541259766,60.5579948425293,-14.745151736152518,-8.258536372689534,115,-158,-480,9,13,11,9,
81,51,-228,-99,720,761.69873046875,19.044139862060547,66.5256576538086,-17.417421826765636,-7.468011393465652,-5,-510,549,11,11,13,10,
82,51,-249,-74,700,746.643798828125,20.357357025146484,73.44550323486328,-19.48088429573671,-5.687932706962353,125,-182,1189,9,15,12,14,
83,54,-207,-74,756,787.3125,16.211179733276367,70.32540893554688,-15.243379797505838,-5.393227257880639,-36,33,719,9,11,10,8,
84,54,-248,-122,776,823.7499389648438,19.60202407836914,63.802364349365234,-17.521414245872915,-8.517019809839887,176,-89,625,7,10,11,8,
85,54,-225,-125,776,817.5732421875,18.348005294799805,60.941890716552734,-15.974213475894798,-8.794530672711671,-149,78,-199,10,14,11,8,
86,54,-231,-59,706,745.1697998046875,18.65767478942871,75.66925048828125,-18.05901766480821,-4.54123752177898,99,-161,-201,6,10,5,5,
87,54,-186,-72,751,777.033447265625,14.870962142944336,68.83545684814453,-13.849474191173162,-5.3166594260710305,-342,-207,-912,9,13,9,8,
88,55,-198,-123,774,808.337158203125,16.757802963256836,58.147361755371094,-14.178718595515813,-8.752367391067478,-78,-35,-367,6,15,10,8,
89,55,-225,-147,763,808.9517822265625,19.402530670166016,56.83843994140625,-16.149088919012026,-10.46976512117365,-173,-25,1495,11,11,10,12,
90,55,-211,-73,732,765.2933959960938,16.960350036621094,70.91261291503906,-16.00440433232197,-5.473666463151262,-68,254,1333,8,10,10,10,
91,55,-218,-81,690,728.1380615234375,18.62408447265625,69.61370849609375,-17.42119587014944,-6.386953470767935,95,-98,776,7,8,8,9,
92,55,-214,-153,726,772.1923217773438,19.916078567504883,54.433292388916016,-16.08916915562325,-11.428046625021294,41,-165,-903,9,12,9,9,
93,55,-225,-92,720,759.9269409179688,18.653310775756836,67.75758361816406,-17.2223751342122,-6.953528296511575,-121,-18,-307,9,10,8,8,
94,55,-219,-72,726,761.722412109375,17.614442825317383,71.79764556884766,-16.708721683729102,-5.423844612164792,-79,-342,375,8,6,6,7,
95,55,-221,-75,772,806.5048217773438,16.81817626953125,71.25129699707031,-15.903735831759661,-5.3358656249065906,-152,-110,-1412,7,6,9,10,
96,55,-256,-90,708,758.2216186523438,20.96860122680664,70.62700653076172,-19.732678141585282,-6.817013006882777,149,-44,585,9,7,7,8,
97,55,-207,-146,722,765.1463623046875,19.33094024658203,54.800453186035156,-15.69619213800519,-11.000243022673056,-38,-299,1412,10,9,9,11,
98,61,-210,-104,704,741.9784545898438,18.409021377563477,63.65019607543945,-16.440954476063325,-8.057440402113578,-168,-251,809,14,16,10,9,
99,61,-235,-67,729,768.8660278320312,18.52930450439453,74.08368682861328,-17.796967897716698,-4.999170306409828,-80,-194,479,7,8,7,8,
100,61,-223,-82,750,786.7356567382812,17.57595443725586,69.80762481689453,-16.46620294734908,-5.982698631729799,-326,201,-501,6,13,8,7,
101,61,-225,-134,762,805.7449951171875,18.964427947998047,59.22029113769531,-16.21512975051929,-9.573094663525271,-114,41,-975,7,12,7,6,
102,63,-249,-141,753,805.5377197265625,20.805437088012695,60.47511672973633,-18.005621018873182,-10.080890470610981,-137,-78,-749,5,10,9,12,
103,63,-195,-92,714,745.8451538085938,16.80105972290039,64.73890686035156,-15.15602059112336,-7.085480313295521,-204,-307,1549,11,12,13,12,
104,63,-224,-63,726,762.3785400390625,17.76908302307129,74.28824615478516,-17.08663130240037,-4.740106018022705,51,37,1419,15,16,18,14,
105,63,-209,-146,795,834.87841796875,17.778167724609375,55.059532165527344,-14.497386765502448,-10.071428142242208,-147,-248,223,10,12,13,9,
106,63,-221,-126,766,807.1387939453125,18.369665145874023,60.307456970214844,-15.890913597399742,-8.981003356832158,-130,103,-507,12,10,12,15,
107,71,-276,-86,705,761.9691772460938,22.294292449951172,72.69010162353516,-21.236558735491492,-6.480523333395751,214,-41,-1000,12,10,12,12,
108,71,-243,-78,724,767.6646118164062,19.415590286254883,72.2008285522461,-18.454077500955776,-5.8317086146710615,65,-100,-740,11,9,11,11,
109,71,-236,-107,722,767.0912475585938,19.740825653076172,65.6075668334961,-17.918008873335815,-8.018218177636893,38,-198,117,10,12,10,9,
110,71,-213,-105,723,761.0013427734375,18.18099594116211,63.755218505859375,-16.253901787589683,-7.930749257408952,-121,-121,757,8,10,11,10,
111,71,-197,-158,770,810.3536376953125,18.155567169189453,51.26552200317383,-14.069798500915358,-11.243357001151569,-199,198,-71,7,11,12,11,
112,69,-216,-81,758,792.3262939453125,16.924833297729492,69.4406967163086,-15.819931003784244,-5.867633221831049,-33,53,807,9,12,12,14,
113,69,-229,-93,725,765.9732666015625,18.82295036315918,67.89395904541016,-17.395512820177313,-6.97372500726389,66,850,836,7,8,9,11,
114,69,-200,-108,724,758.8412475585938,17.427350997924805,61.627471923828125,-15.281390248098651,-8.182247965653275,-109,514,-1108,6,7,9,12,
115,69,-224,-105,738,778.3604736328125,18.529796600341797,64.88176727294922,-16.725357917904574,-7.752776084087303,-230,-251,10,8,7,9,10,
116,69,-219,-142,725,770.5517578125,19.797340393066406,57.03691482543945,-16.511747609323518,-10.619363767496013,-104,178,-739,7,5,9,8,
117,73,-255,-109,727,778.0970458984375,20.877668380737305,66.85233306884766,-19.130605967593223,-8.052785420688664,97,-30,-816,8,7,10,8,
118,73,-213,-153,696,743.7701416015625,20.644567489624023,54.30622100830078,-16.64128403953944,-11.870989939202886,32,-254,367,12,9,8,10,
119,73,-197,-105,721,754.7681884765625,17.20136833190918,61.93912887573242,-15.129839849026007,-7.996670949446023,-121,-343,1180,9,10,10,9,
120,73,-195,-72,704,734.0469970703125,16.447948455810547,69.7310562133789,-15.405613001810098,-5.628985322418077,-233,-356,254,8,7,9,11,
121,73,-219,-118,749,789.2312622070312,18.370866775512695,61.68014907836914,-16.11017097131087,-8.598680655515597,-242,-200,-133,8,8,8,8,
122,74,-215,-116,731,770.7412109375,18.477285385131836,61.64809799194336,-16.197682263538884,-8.656162751284645,-214,91,-231,9,8,8,8,
123,74,-231,-114,736,779.7775268554688,19.28785514831543,63.72993469238281,-17.23180838246951,-8.406516581537817,-132,-101,-93,8,6,8,9,
124,74,-213,-149,743,787.1588134765625,19.280559539794922,55.02234649658203,-15.699582156266626,-10.911256538596358,-210,-690,93,7,5,10,8,
125,74,-225,-78,744,781.1818237304688,17.746488571166992,70.87705993652344,-16.739761184928312,-5.7304589862059885,-275,-113,1217,12,10,11,13,
126,74,-216,-114,772,809.7135009765625,17.553665161132812,62.172428131103516,-15.47161867313506,-8.093593597948734,-112,85,80,9,7,9,12,
127,76,-218,-129,783,822.9544067382812,17.924768447875977,59.38180160522461,-15.360965417580386,-9.018438049487296,-37,-106,-67,9,7,7,8,
128,76,-218,-110,702,743.2550048828125,19.177379608154297,63.22163009643555,-17.05589258976993,-8.51090571049679,-125,-219,-222,5,6,8,8,
129,76,-239,-120,777,821.7359619140625,18.990753173828125,63.335697174072266,-16.90871222205047,-8.397062432272671,149,13,-1124,11,9,11,8,
130,76,-237,-112,702,749.3443603515625,20.47393035888672,64.70240020751953,-18.43789070219018,-8.59586520962378,20,-173,10,8,8,11,11,
131,76,-240,-124,696,746.5869140625,21.21085548400879,62.67265701293945,-18.75141876548227,-9.560512511743752,-20,-409,728,9,8,10,9,
132,83,-225,-156,747,795.5941162109375,20.12681007385254,55.26146697998047,-16.427838029206885,-11.307814142633456,-187,-224,-201,10,10,9,8,
133,83,-207,-62,709,741.1976928710938,16.947769165039062,73.32300567626953,-16.217101683421138,-4.798307088575495,-89,4,54,7,8,6,7,
134,83,-236,-102,711,756.0562133789062,19.878034591674805,66.62248992919922,-18.18861223044625,-7.753450538615887,5,-85,73,8,7,7,9,
135,83,-229,-155,725,775.9452514648438,20.875490188598633,55.90399932861328,-17.164968459054077,-11.522712393286,23,-162,429,9,8,8,11,
136,83,-212,-129,751,790.93994140625,18.2836971282959,58.67630386352539,-15.547402223418496,-9.386708085218912,-220,-481,146,13,10,11,8,
137,86,-202,-60,730,759.8052368164062,16.09918975830078,73.45387268066406,-15.4179179765958,-4.529226121095002,-178,-260,-59,10,9,8,6,
138,86,-228,-105,782,821.299560546875,17.794095993041992,65.26930236816406,-16.117542792516144,-7.345147985157941,-31,-69,327,10,6,8,6,
139,86,-225,-167,725,777.2637939453125,21.128870010375977,53.41264343261719,-16.826648119927736,-12.40709520958001,-108,-71,-974,9,9,10,10,
140,86,-252,-112,651,707.0,22.955869674682617,66.03414916992188,-20.88145733714659,-9.114957953826556,310,269,547,12,14,12,13,
141,92,-177,-63,712,736.370849609375,14.77966022491455,70.40448760986328,-13.90826233036354,-4.907924168944863,-126,-365,138,9,12,9,13,
142,92,-232,-84,758,797.1473999023438,18.028610229492188,70.09300994873047,-16.920095575657143,-6.048815070552696,56,-397,1015,9,11,11,8,
143,92,-231,-135,730,777.4869995117188,20.126558303833008,59.69377517700195,-17.284170581458245,-9.999311801856306,-16,-35,14,11,8,11,12,
144,92,-205,-144,787,825.91162109375,17.655418395996094,54.91060256958008,-14.371648643266317,-10.040997060607303,-84,87,145,5,9,9,9,
145,92,-224,-157,784,830.3499145507812,19.2320499420166,54.969970703125,-15.65033019742479,-10.898918751996442,-26,-336,385,7,6,8,7,
146,88,-204,-114,674,713.3638916015625,19.12057876586914,60.79899978637695,-16.61678323719384,-9.195650159292446,-237,45,-422,8,6,8,8,
147,88,-232,-143,715,765.1784057617188,20.86290168762207,58.347599029541016,-17.649739773364143,-10.77102389417793,185,-123,215,12,8,8,13,
148,88,-214,-121,732,772.1793823242188,18.56232261657715,60.51176834106445,-16.0894463113892,-9.015365737904123,-176,-315,177,9,6,12,13,
149,88,-175,-92,669,697.60302734375,16.461807250976562,62.26498031616211,-14.528349127685582,-7.57825307177571,-38,-394,448,8,10,16,11,
150,88,-196,-62,744,771.8782348632812,15.443649291992188,72.44328308105469,-14.709958684832188,-4.607163673088904,-258,-207,277,8,8,10,13,
151,97,-223,-153,792,836.9002075195312,18.851146697998047,55.5423583984375,-15.453693323611017,-10.533913832935099,-93,-103,137,7,7,10,9,
152,97,-207,-183,786,833.1470336914062,19.365419387817383,48.517574310302734,-14.386137865721564,-12.68842387775151,3,24,-306,13,9,8,10,
153,97,-220,-105,745,783.8685913085938,18.116558074951172,64.48272705078125,-16.29955652180088,-7.6979668386398785,-227,252,-41,18,11,13,12,
154,97,-243,-93,731,775.9246215820312,19.5903377532959,69.0540771484375,-18.25066056490888,-6.883850019364297,-179,53,-594,8,11,14,10,
155,97,-226,-147,718,766.9478759765625,20.57858657836914,56.95467758178711,-17.138022083468094,-11.050191516820568,468,22,-635,8,9,10,10,
156,100,-219,-121,744,784.944580078125,18.585458755493164,61.07534408569336,-16.200565703178384,-8.867560916113714,-142,79,702,5,7,7,7,
157,100,-234,-112,732,776.610595703125,19.512361526489258,64.41929626464844,-17.536260343143876,-8.291906579123495,-325,348,500,7,6,8,9,
158,100,-235,-91,701,744.9207763671875,19.77103614807129,68.82862091064453,-18.38917620364075,-7.016815567216182,-135,26,426,14,10,14,11,
159,100,-228,-104,675,720.017333984375,20.365806579589844,65.47697448730469,-18.46099708594763,-8.304907862734625,-170,-241,378,10,7,6,10,
160,100,-214,-71,701,736.3681030273438,17.827810287475586,71.6422119140625,-16.894809691904214,-5.533007085016317,-48,59,-258,8,8,9,9,
161,100,-227,-101,710,752.2167358398438,19.284740447998047,66.01073455810547,-17.56422884135564,-7.716398929305726,-28,-346,-877,7,5,6,7,
162,100,-178,-65,682,707.8368530273438,15.525989532470703,69.93614959716797,-14.564538720529166,-5.268840963785206,-287,-305,302,12,8,12,7,
163,100,-238,-157,789,838.9362182617188,19.86616325378418,56.5849609375,-16.480714797223385,-10.78602716158034,-81,-152,-65,8,10,10,7,
164,100,-221,-126,803,842.3336791992188,17.576383590698242,60.307456970214844,-15.210518819730543,-8.602844385386918,-103,161,400,9,9,12,14,
165,100,-239,-120,739,785.9020385742188,19.892433166503906,63.335697174072266,-17.704576411650816,-8.782893990594285,25,-263,-102,8,5,5,10,
166,102,-231,-75,701,741.8807373046875,19.107196807861328,72.00948333740234,-18.141861283061225,-5.80219544939751,94,-313,438,10,8,8,7,
167,102,-222,-87,736,773.6594848632812,17.948413848876953,68.59690856933594,-16.675321898777437,-6.456715071435077,-70,-101,-230,8,7,8,6,
168,102,-226,-115,762,803.0846557617188,18.404165267944336,63.027305603027344,-16.344668941089903,-8.232934623650078,-95,15,-268,8,6,9,6,
169,102,-231,-160,772,821.5503540039062,19.998918533325195,55.28826904296875,-16.330386790627955,-11.23033771075293,-147,27,-264,10,9,8,10,
170,102,-235,-93,733,775.3470458984375,19.02172088623047,68.40579223632812,-17.64329615472031,-6.889002952977053,0,-27,-108,6,11,9,8,
171,104,-286,-119,727,790.2442626953125,23.076515197753906,67.4052734375,-21.217751897582627,-8.660907944814197,239,-20,373,9,7,9,6,
172,104,-246,-105,723,770.8890991210938,20.299728393554688,66.88245391845703,-18.609233930971133,-7.828383780492137,156,139,1920,10,11,10,11,
173,104,-228,-141,738,785.1808471679688,19.96135139465332,58.26288986206055,-16.88064480464191,-10.345090684414554,106,-179,-257,8,7,9,7,
174,104,-202,-111,722,757.8977661132812,17.70284080505371,61.20748519897461,-15.457690386468192,-8.421703442039616,-9,388,220,6,7,6,8,
175,104,-234,-100,744,786.3154296875,18.8802433013916,66.8572006225586,-17.31293950491099,-7.306401052291157,76,-285,-967,7,8,7,9,
176,109,-224,-202,789,844.6898803710938,20.919450759887695,47.952415466308594,-15.378010052465907,-13.83584819500607,248,-336,-1179,13,10,13,9,
177,109,-242,-114,731,778.4093017578125,20.097869873046875,64.77267456054688,-18.112900560750106,-8.42140046345281,261,-460,566,10,7,8,7,
178,109,-221,-90,734,771.8140869140625,18.007204055786133,67.83858489990234,-16.63886675190521,-6.696403283237686,-35,-134,249,7,10,10,10,
179,109,-200,-65,712,742.4075927734375,16.45294189453125,71.9926528930664,-15.628197898943423,-5.022847734154672,-161,-172,748,9,11,10,9,
180,109,-229,-104,699,742.8714599609375,19.78733253479004,65.57152557373047,-17.954599488710254,-8.047690160065663,-96,-35,932,8,7,6,7,
181,112,-226,-107,699,742.3786010742188,19.681339263916016,64.66131591796875,-17.72368664994508,-8.286978400112922,74,-320,-634,10,11,10,8,
182,112,-213,-108,723,761.4210205078125,18.27690887451172,63.10961151123047,-16.24469385089119,-8.15433614971276,-16,-347,-116,9,8,10,9,
183,112,-198,-72,705,735.8077392578125,16.636262893676758,70.0136489868164,-15.61024507104159,-5.6154723462361265,-25,-214,-700,8,6,6,8,
184,112,-168,-107,747,773.0989379882812,14.927831649780273,57.50313186645508,-12.550923228002754,-7.955503997329392,-163,-77,-677,9,8,12,11,
185,112,-243,-202,828,886.2488403320312,20.88665008544922,50.26025390625,-15.913711061628085,-13.175053670500532,160,61,1529,8,7,13,16,
186,119,-188,-151,789,825.0248413085938,16.9919490814209,51.225059509277344,-13.171815357584256,-10.545995116775698,-106,-261,-35,7,10,11,10,
187,119,-196,-48,729,756.4132690429688,15.470232963562012,76.23615264892578,-15.017711267495958,-3.638284426768843,-177,255,927,7,12,9,8,
188,119,-255,-107,722,773.1481323242188,20.955726623535156,67.23336791992188,-19.257873385232752,-7.954994967756728,282,-314,-592,12,11,9,10,
189,119,-240,-133,769,816.4863891601562,19.634933471679688,61.00273513793945,-17.094132489654033,-9.374862410076924,-44,20,-801,7,7,8,12,
190,121,-226,-145,736,783.4519653320312,20.041519165039062,57.31243896484375,-16.766196626361207,-10.665700467619896,-18,26,-213,5,8,9,7,
191,121,-218,-116,738,778.218505859375,18.49858283996582,61.978633880615234,-16.267784019982315,-8.57236332249503,-94,-48,-276,8,6,8,8,
192,121,-251,-66,688,735.32373046875,20.665790557861328,75.26458740234375,-19.958916082547795,-5.149592215298583,-4,-61,757,8,10,9,11,
193,121,-226,-114,660,706.8748168945312,20.98087501525879,63.22904586791992,-18.645820154519864,-9.28080806417975,-64,253,272,17,9,11,11,
194,121,-211,-146,730,773.781005859375,19.36394500732422,55.31528854370117,-15.824220752948495,-10.87598713008937,44,-271,912,9,9,9,8,
195,121,-234,-103,744,786.70263671875,18.96251678466797,66.23894500732422,-17.30415048871579,-7.523118346268202,31,-337,711,10,8,7,9,
196,121,-265,-66,746,794.4161376953125,20.104570388793945,76.0115737915039,-19.48610944129441,-4.7656196968869775,67,-151,-1031,7,9,8,11,
197,121,-275,-85,717,772.6182861328125,21.870786666870117,72.82093811035156,-20.850609588499136,-6.316210127836277,-72,-154,-720,10,10,10,8,
198,121,-222,-94,708,747.9197998046875,18.80211067199707,67.04773712158203,-17.266901252486488,-7.22013794451115,275,-283,-340,10,9,10,10,
199,121,-212,-154,729,774.661865234375,19.768310546875,54.001068115234375,-15.882638895779941,-11.466585412454632,-6,-466,1538,9,10,12,11,
200,125,-225,-87,723,762.1830444335938,18.449546813964844,68.85690307617188,-17.169811042852427,-6.554359029317913,-30,-381,192,10,9,9,9,
201,125,-224,-96,750,788.601318359375,17.998910903930664,66.7980728149414,-16.501904382275164,-6.992217246127718,-93,-183,336,5,9,7,7,
202,125,-241,-166,769,822.7988891601562,20.831960678100586,55.4373893737793,-17.031815583445923,-11.639336102165084,64,-23,640,7,8,9,8,
203,125,-230,-147,766,813.1820068359375,19.61140251159668,57.41249084472656,-16.429748560244025,-10.414691129249784,157,-201,-788,7,10,7,8,
204,125,-219,-114,749,788.6431274414062,18.241779327392578,62.49739074707031,-16.122512520473574,-8.311341555871747,77,-195,-759,10,8,8,9,
205,132,-219,-97,741,778.7496337890625,17.91074562072754,66.10701751708984,-16.333033650521045,-7.155268823727144,-101,-139,-679,7,8,8,9,
206,132,-235,-150,784,832.0943603515625,19.57341194152832,57.44638442993164,-16.40468500063411,-10.385371587241563,40,231,1093,10,10,11,13,
207,132,-214,-156,746,791.6110229492188,19.542402267456055,53.905277252197266,-15.68418994772813,-11.365467220367902,6,-92,1290,11,9,12,13,
208,132,-200,-94,724,756.9755859375,16.971763610839844,64.82308197021484,-15.319975904080211,-7.133310835872813,-98,-140,341,9,10,12,15,
209,132,-235,-87,699,742.5597534179688,19.720375061035156,69.68155670166016,-18.449750983807732,-6.728358227645649,-35,-20,-515,12,8,10,9,
210,134,-231,-116,693,739.6390991210938,20.453521728515625,63.33237838745117,-18.198767190016316,-9.023133928444503,-70,-283,-695,9,7,7,6,
211,134,-221,-99,732,771.0162353515625,18.303192138671875,65.86598205566406,-16.656587207113645,-7.377257980529012,-47,-252,-354,8,6,5,6,
212,134,-237,-150,734,785.7639770507812,20.911083221435547,57.66619873046875,-17.55476753520038,-11.005138008042342,-23,-197,-125,8,7,6,7,
213,134,-232,-78,729,768.9921875,18.557323455810547,71.41380310058594,-17.559351183695327,-5.821606167172031,31,-91,396,9,5,6,9,
214,134,-230,-134,723,770.4447021484375,20.210203170776367,59.770999908447266,-17.369266713151326,-10.01613675974475,114,-177,731,9,7,9,7,
215,137,-231,-117,718,763.265380859375,19.82930564880371,63.134639739990234,-17.616660061214596,-8.817563442435292,-11,-355,501,9,8,7,6,
216,137,-209,-90,702,737.9600219726562,17.958051681518555,66.69888305664062,-16.452070860472986,-7.0051077445670815,-17,-133,368,7,7,7,7,
217,137,-220,-88,741,777.9620971679688,17.730422973632812,68.19529724121094,-16.426799346395214,-6.4949737696618035,33,-363,142,8,5,7,7,
218,137,-222,-192,786,839.0137329101562,20.47469711303711,49.14076614379883,-15.342971757278011,-13.228794574554371,-108,-370,-186,6,9,7,6,
219,137,-229,-129,765,808.8924560546875,18.959320068359375,60.60310363769531,-16.445497941965908,-9.176559279618752,-137,404,-828,8,7,7,8,
220,140,-236,-152,759,809.2471923828125,20.294673919677734,57.21208953857422,-16.955511056646873,-10.826107755701905,127,-353,151,8,6,10,9,
221,140,-219,-71,734,769.258056640625,17.412071228027344,72.03407287597656,-16.540312768304215,-5.295749699367659,-8,-205,822,11,8,8,7,
222,140,-218,-82,740,775.7886352539062,17.469043731689453,69.38311004638672,-16.32015813230907,-6.067434296509629,-2,460,246,6,7,8,6,
223,140,-230,-123,766,809.1878662109375,18.801652908325195,61.85941696166992,-16.51316228436101,-8.74309408112564,-70,179,287,12,6,8,8,
224,140,-250,-135,740,792.6695556640625,21.002153396606445,61.627471923828125,-18.384355810771176,-9.805876648182924,38,-148,254,6,6,7,7,
225,145,-226,-72,695,734.3602905273438,18.841815948486328,72.32577514648438,-17.923738753230584,-5.626576350315378,54,24,-221,8,10,7,8,
226,145,-206,-77,719,751.8816528320312,17.005138397216797,69.50167846679688,-15.901195927861993,-5.877950750631548,-55,114,-810,8,8,6,9,
227,145,-208,-179,795,841.0291137695312,19.041522979736328,49.28162384033203,-14.318746310279217,-12.288512089688394,33,-164,-328,6,8,6,6,
228,145,-215,-171,789,835.4561767578125,19.19478988647461,51.49925994873047,-14.91254887898222,-11.810685406445357,115,45,1656,8,7,7,8,
229,145,-235,-81,735,775.8936767578125,18.682798385620117,70.97869110107422,-17.630457550539038,-5.992354076008828,57,-174,991,6,11,7,7,
230,145,-207,-63,733,764.2689208984375,16.443931579589844,73.06932830810547,-15.714678593652602,-4.728354657929563,-90,-90,-107,9,12,8,6,
231,145,-217,-108,708,748.3428344726562,18.897005081176758,63.5372200012207,-16.856402208005765,-8.297839041137857,19,-220,832,6,8,7,9,
232,145,-222,-142,726,772.3496704101562,19.948265075683594,57.391780853271484,-16.704430190365994,-10.594357534700173,45,-508,-686,12,8,8,5,
233,145,-225,-79,732,769.8636474609375,18.04209327697754,70.65003204345703,-16.99328079382141,-5.889807048964011,-9,-268,197,9,7,7,8,
234,152,-217,-84,749,784.3124389648438,17.256229400634766,68.83545684814453,-16.061885211723876,-6.148180216963905,11,-43,144,18,9,12,10,
235,152,-213,-125,780,818.1650390625,17.567094802856445,59.5897216796875,-15.0901590635123,-8.788119180491515,-281,0,450,17,12,10,11,
236,152,-222,-142,681,730.2116088867188,21.153152465820312,57.391780853271484,-17.699302227388845,-11.21342397980812,-76,108,320,9,8,8,11,
237,152,-222,-87,701,740.4417724609375,18.78316307067871,68.59690856933594,-17.44685318724762,-6.747693753610714,-52,-855,702,15,11,10,9,
238,152,-222,-47,721,755.8663940429688,17.468238830566406,78.04331970214844,-17.079761909508274,-3.5649686229090944,11,-74,405,16,10,9,9,
239,153,-225,-47,727,762.4716186523438,17.543317794799805,78.19820404052734,-17.163110734341544,-3.53404610526785,145,-165,-6,10,12,10,10,
240,153,-219,-119,765,804.5787963867188,18.043882369995117,61.47777557373047,-15.794752378474106,-8.50544962704707,-213,208,778,9,12,10,13,
241,153,-220,-183,770,821.4554443359375,20.385013580322266,50.24186706542969,-15.534426735575309,-12.872093872442141,81,111,-235,20,10,15,16,
242,153,-227,-93,723,763.4834594726562,18.739837646484375,67.71818542480469,-17.296793182711706,-6.996580342324583,18,-192,-248,18,11,14,12,
243,153,-246,-85,687,734.6495971679688,20.747228622436523,70.93529510498047,-19.5636311016325,-6.6440835866441,164,-11,338,23,11,13,10,
244,158,-224,-84,739,776.7579956054688,17.935888290405273,69.4406967163086,-16.760880282997935,-6.208208874871649,-51,-109,59,16,9,8,6,
245,158,-201,-167,794,835.8983154296875,18.215435028076172,50.27481460571289,-13.913683760283849,-11.524390502122142,-11,377,72,11,8,12,7,
246,158,-258,-138,750,805.0515747070312,21.309621810913086,61.854923248291016,-18.691736254538288,-9.870251199854279,-15,50,-445,11,12,11,11,
247,158,-225,-58,732,767.9928588867188,17.608623504638672,75.54203033447266,-17.03593833376858,-4.331189195622819,-109,-9,132,9,11,10,10,
248,158,-204,-171,722,769.5069580078125,20.23606300354004,50.02523422241211,-15.373180479940928,-12.839469867573666,46,-320,-365,10,10,9,8,
249,161,-213,-119,726,765.902099609375,18.57390785217285,60.80503845214844,-16.147044340501136,-8.938391476494308,12,-312,-556,10,9,7,8,
250,161,-234,-64,699,739.9006958007812,19.1377010345459,74.70034790039062,-18.436815157310562,-4.9621768435746665,-3,-638,511,14,14,8,7,
251,161,-219,-84,747,782.9597778320312,17.430076599121094,69.01182556152344,-16.242769547363206,-6.1588430921337,-155,-133,317,13,13,9,10,
252,161,-224,-102,728,768.4816284179688,18.677812576293945,65.51414489746094,-16.94681432207896,-7.627334668598919,-2,-243,-83,7,8,8,5,
253,161,-223,-94,719,758.63427734375,18.600170135498047,67.14004516601562,-17.094541822526544,-7.117633179936107,-12,-249,-96,7,6,8,9,
254,163,-222,-99,723,762.767333984375,18.580642700195312,65.96234893798828,-16.920559026534015,-7.457489832706763,36,-238,299,8,7,7,4,
255,163,-219,-79,741,776.7129516601562,17.4399471282959,70.16083526611328,-16.377066121343876,-5.837687423775972,4,-150,214,10,7,8,7,
256,163,-233,-96,746,787.4141235351562,18.6630859375,67.60417938232422,-17.21183013495067,-7.0028120637492295,-42,32,376,8,6,7,5,
257,163,-225,-107,735,776.0792236328125,18.723268508911133,64.56291198730469,-16.85309750344692,-7.924756665151464,-38,-361,-119,7,9,6,4,
258,163,-207,-148,770,810.9580688476562,18.285337448120117,54.43244552612305,-14.788614981536572,-10.515422590048285,-148,-229,-63,8,10,7,8,
259,168,-225,-78,741,778.3251342773438,17.81380844116211,70.87705993652344,-16.80302131684209,-5.751562184466477,25,-165,-6,8,7,9,8,
260,168,-212,-132,730,771.5361328125,18.88391876220703,58.08829116821289,-15.948695666614125,-9.851040470650455,-110,-131,59,6,6,6,6,
261,168,-223,-104,742,781.734619140625,18.344223022460938,64.99378967285156,-16.57457305875824,-7.645151955373716,25,-394,434,7,6,7,8,
262,168,-235,-96,744,786.1151123046875,18.837505340576172,67.77615356445312,-17.393852158128208,-7.0144417474986,8,-201,161,6,7,6,5,
263,168,-227,-78,746,783.663818359375,17.833560943603516,71.03343200683594,-16.837902380218534,-5.7122489046558735,45,-68,212,12,6,10,7,
264,173,-205,-141,756,795.8906860351562,18.214908599853516,55.4759407043457,-14.926104555781198,-10.20438165019372,-40,-78,305,6,6,9,8,
265,173,-223,-140,741,786.3905029296875,19.55988121032715,57.87568664550781,-16.473636428592606,-10.254952511472808,161,-107,-630,8,7,8,8,
266,173,-228,-132,729,775.14453125,19.867324829101562,59.927879333496094,-17.105897532102357,-9.804728897533401,39,-124,-454,7,6,7,5,
267,173,-219,-93,760,796.373046875,17.38130760192871,66.98780059814453,-15.961820893177164,-6.706271355774162,-25,-165,182,7,8,7,7,
268,173,-234,-94,711,754.3958129882812,19.526288986206055,68.11090850830078,-18.07019953007551,-7.157831804631691,-10,-114,438,9,8,7,5,
269,175,-238,-87,716,759.5189208984375,19.487533569335938,69.91706085205078,-18.26161038049633,-6.577450737903397,-162,-203,392,7,5,6,7,
270,175,-220,-99,741,779.2830200195312,18.03166961669922,65.76889038085938,-16.39816837409122,-7.298570149930047,-56,-265,215,6,5,5,5,
271,175,-234,-73,712,753.0133056640625,18.9951114654541,72.67070007324219,-18.104524691813275,-5.563210220509564,17,-40,345,9,7,8,6,
272,175,-245,-114,737,784.9777221679688,20.13360023498535,65.04376220703125,-18.186481699201934,-8.350427615533881,71,108,-623,8,9,5,6,
273,175,-224,-143,770,814.5704345703125,19.039234161376953,57.4425163269043,-15.961511506785525,-10.110820577540862,154,-324,218,9,10,10,8,
274,176,-204,-103,738,772.572998046875,17.20343017578125,63.20726013183594,-15.310673243569216,-7.661527572280442,-6,-245,124,13,8,10,10,
275,176,-232,-109,735,778.4150390625,19.224031448364258,64.83116912841797,-17.3400096753503,-8.049473661815236,-211,32,71,5,8,8,8,
276,176,-210,-104,711,748.6234130859375,18.23981285095215,63.65019607543945,-16.29093641937104,-7.985451716317212,-138,-44,781,6,5,9,10,
277,176,-238,-104,744,788.0330200195312,19.242021560668945,66.39253997802734,-17.578837920935605,-7.583686950774346,-24,-393,921,7,7,9,7,
278,176,-232,-78,735,774.6824951171875,18.416078567504883,71.41380310058594,-17.426224586806974,-5.778698272867322,61,-298,395,4,6,6,9,
279,180,-231,-108,762,803.5353393554688,18.50048828125,64.93898010253906,-16.707122581026436,-7.724275509498831,-129,-316,-716,6,6,5,5,
280,180,-222,-111,743,783.3607177734375,18.4700927734375,63.431514739990234,-16.462895128458392,-8.146066408067334,-82,-26,-877,7,6,8,7,
281,180,-244,-177,754,812.0227661132812,21.788795471191406,54.03878402709961,-17.486686403972318,-12.590074630244668,-182,-50,803,11,12,7,6,
282,180,-204,-108,714,750.3839111328125,17.913053512573242,62.09925842285156,-15.775027895519505,-8.275110202908325,-166,-377,854,8,6,8,9,
283,180,-195,-87,717,748.11962890625,16.581727981567383,65.9524154663086,-15.10884178259925,-6.678125827314892,-171,-92,1107,9,9,10,7,
284,184,-254,-93,695,745.781494140625,21.263694763183594,69.886962890625,-19.912357499223816,-7.163512858273442,11,-64,865,10,6,9,9,
285,184,-228,-160,784,832.0096435546875,19.55699920654297,54.936885833740234,-15.904532273158056,-11.087359451862476,-40,277,-1209,8,11,7,6,
286,184,-200,-138,742,780.7739868164062,18.13043785095215,55.39064025878906,-14.84209905652136,-10.180379196519672,-104,-65,-12,8,10,8,7,
287,184,-237,-85,738,779.7679443359375,18.835874557495117,70.26640319824219,-17.69419799300527,-6.258064743933783,38,268,-649,15,10,11,9,
288,184,-228,-114,705,749.669921875,19.876750946044922,63.431514739990234,-17.70606174539513,-8.746726884842962,-102,-106,41,7,9,10,10,
289,186,-232,-155,780,828.4014892578125,19.680601119995117,56.249332427978516,-16.263633242522726,-10.784020056995443,-13,67,1019,9,16,9,7,
290,186,-248,-131,761,811.0401000976562,20.229717254638672,62.152347564697266,-17.805109073207237,-9.295191269175886,101,45,883,8,14,11,10,
291,186,-216,-87,710,747.2114868164062,18.15610694885254,68.05821228027344,-16.802572963252924,-6.686279438243967,-39,76,295,5,11,7,9,
292,186,-204,-92,750,782.6749267578125,16.6119327545166,65.7221908569336,-15.108314888103786,-6.7504739302883445,-268,0,-626,6,12,7,9,
293,189,-251,-66,756,799.3078002929688,18.945077896118164,75.26458740234375,-18.30176465676495,-4.736387735225335,14,569,-579,7,11,8,7,
294,189,-231,-178,753,807.4985961914062,21.168554306030273,52.379722595214844,-16.622734828454703,-12.734514414416712,-183,-174,-563,8,11,7,8,
295,189,-252,-111,690,742.9165649414062,21.753808975219727,66.22429656982422,-19.82836312221049,-8.592802138587922,152,-40,550,17,10,12,10,
296,189,-227,-63,703,741.4223022460938,18.52424430847168,74.48579406738281,-17.828465471495786,-4.874404359549636,-92,69,1153,12,8,9,8,
297,189,-195,-81,695,726.3683471679688,16.897607803344727,67.43943786621094,-15.572578730367056,-6.4025792073593335,-238,133,852,7,7,7,8,
298,190,-211,-104,744,780.3031616210938,17.54378890991211,63.75830841064453,-15.688530405807892,-7.659261026683711,-99,-107,275,7,6,9,9,
299,190,-242,-92,712,757.609375,19.9802303314209,69.1816635131836,-18.628204218036387,-6.974905091104072,119,-396,-302,12,9,9,10,
300,190,-203,-78,717,749.2542724609375,16.87063980102539,68.97813415527344,-15.71997491248926,-5.975518243732433,-70,-148,-719,9,13,12,12,
301,190,-229,-108,718,761.3336791992188,19.42218780517578,64.7472915649414,-17.504935179312426,-8.155278000050208,-14,-214,-719,8,6,7,9,
302,190,-238,-120,726,773.3822021484375,20.157943725585938,63.23923873901367,-17.923035785981455,-8.926227372499774,82,-227,-115,9,12,11,9,
303,195,-221,-124,711,754.8099365234375,19.614728927612305,60.700313568115234,-17.025000311201254,-9.455397533450514,43,-452,1051,11,9,11,14,
304,195,-246,-84,690,737.3411865234375,20.641029357910156,71.14363098144531,-19.48932182842665,-6.541500014347193,-171,-172,1542,12,14,13,10,
305,195,-205,-92,745,778.1478271484375,16.781545639038086,65.82701873779297,-15.27463997676586,-6.78993110560295,-126,-88,859,13,12,16,13,
306,195,-234,-146,777,824.5004272460938,19.541240692138672,58.03506851196289,-16.48762286477586,-10.199544657672634,-7,-248,-122,12,13,9,10,
307,195,-272,-126,717,777.1415405273438,22.68705940246582,65.1413803100586,-20.487350922358996,-9.330703082747906,-128,-273,-1283,8,12,9,14,
308,200,-213,-130,729,770.5258178710938,18.89403533935547,58.59950256347656,-16.047526000844222,-9.713170718470407,-47,-304,-1311,7,9,9,10,
309,200,-173,-82,742,766.3008422851562,14.465591430664062,64.63617706298828,-13.047566696185674,-6.142844199465414,-223,57,414,10,13,12,13,
310,200,-237,-105,751,794.4778442382812,19.04073143005371,66.10147857666016,-17.356074876780536,-7.594560159104409,288,-259,1657,11,14,16,12,
311,200,-222,-108,757,796.2392578125,18.06031036376953,64.05428314208984,-16.189233951748932,-7.79549184935687,-96,44,1004,8,7,9,9,
312,200,-225,-112,741,782.4640502929688,18.733943939208984,63.53346633911133,-16.71152292384043,-8.229444557835599,46,66,493,10,10,8,7,
313,199,-246,-87,708,754.5521850585938,20.229137420654297,70.52019500732422,-19.027454848010816,-6.620939057411267,45,49,-83,10,10,9,8,
314,199,-225,-144,726,773.5870971679688,20.199247360229492,57.37713623046875,-16.90902083286199,-10.727943157387049,-49,-205,-44,6,10,10,8,
315,199,-209,-87,704,739.50390625,17.824054718017578,67.39628601074219,-16.416750908046833,-6.756291345378423,-65,-234,-97,13,11,9,7,
316,199,-211,-119,768,805.2987060546875,17.504255294799805,60.57430648803711,-15.189633742211072,-8.49778954864616,-317,-11,-756,13,8,11,11,
317,199,-202,-94,706,740.321533203125,17.51258087158203,65.04186248779297,-15.834191708775682,-7.294642157645059,-156,58,435,11,12,11,8,
318,201,-219,-118,729,770.2765502929688,18.839801788330078,61.68014907836914,-16.517815337113184,-8.811937487560705,-206,-10,1002,8,11,11,8,
319,201,-196,-138,740,777.8560180664062,17.946563720703125,54.847625732421875,-14.594392592345093,-10.218977902011096,-219,-220,1076,12,9,14,13,
320,201,-202,-97,707,741.66162109375,17.58379554748535,64.34635925292969,-15.80483197183202,-7.515095615448527,-35,-420,793,10,9,9,9,
321,201,-210,-92,732,767.0645141601562,17.38884162902832,66.33865356445312,-15.888785260781164,-6.8885103939015435,-88,-290,-565,9,9,8,8,
322,201,-192,-76,761,788.5182495117188,15.179244995117188,68.40139770507812,-14.092891869092849,-5.530943247293745,-289,-32,-1122,9,10,8,10,
323,210,-198,-144,784,821.3379516601562,17.3403263092041,53.968910217285156,-13.94970586139536,-10.097495613281207,-130,5,-661,12,17,11,8,
324,210,-224,-123,730,773.4371337890625,19.291343688964844,61.224998474121094,-16.834985785504408,-9.150620403717813,-33,-369,1747,9,8,8,8,
325,210,-225,-130,699,745.7385864257812,20.390743255615234,59.97809600830078,-17.560598082756023,-10.03931144963907,-92,-568,16,6,8,9,6,
326,210,-216,-87,753,788.1839599609375,17.181894302368164,68.05821228027344,-15.905270645864052,-6.3372397425032885,-138,-171,128,7,5,10,9,
327,208,-223,-123,780,820.5230102539062,18.079893112182617,61.11670684814453,-15.770088315168477,-8.621385834576747,-246,-178,723,8,8,11,8,
328,208,-234,-146,769,816.9656982421875,19.728940963745117,58.03506851196289,-16.64408982182204,-10.29463387836332,-235,30,-40,11,14,9,7,
329,208,-223,-107,761,800.1868286132812,18.00318717956543,64.36394500732422,-16.181731618217828,-7.684538968180143,-50,-51,-1313,8,10,9,10,
330,208,-234,-93,732,774.0988159179688,18.98080825805664,68.32205200195312,-17.595016517761795,-6.90016503068563,211,-119,-403,8,7,7,7,
331,208,-228,-144,697,747.3479614257812,21.14921760559082,57.72074890136719,-17.762902811086516,-11.109304889866305,222,-182,690,10,9,11,10,
332,214,-232,-124,783,826.0078735351562,18.568326950073242,61.8727912902832,-16.312075876083565,-8.633859654839805,-75,-7,1530,9,12,12,10,
333,214,-219,-148,762,806.5413818359375,19.128372192382812,55.94554138183594,-15.755317683118989,-10.57366685956723,-39,20,116,9,8,13,11,
334,214,-251,-100,738,785.9039306640625,20.10597038269043,68.2740478515625,-18.625280215627694,-7.310247768215624,77,-31,146,8,7,8,10,
335,214,-232,-130,701,749.7499389648438,20.77330780029297,60.732608795166016,-18.02527441561464,-9.985045980981779,148,-165,-448,9,8,9,9,
336,214,-227,-116,711,755.3184814453125,19.72268295288086,62.92890548706055,-17.48976806776517,-8.834311128641462,39,-264,-745,8,7,9,8,
337,218,-216,-108,722,761.3172607421875,18.49200439453125,63.431514739990234,-16.48227835879585,-8.155455076029869,177,-56,385,9,8,9,9,
338,218,-210,-91,741,775.539794921875,17.161935806274414,66.56796264648438,-15.710635215904965,-6.7384741526738114,-70,-400,347,11,8,9,10,
339,218,-210,-108,773,808.2654418945312,16.985248565673828,62.78044128417969,-15.05912322357589,-7.678798253828693,-114,-182,40,9,10,9,8,
340,218,-218,-138,700,746.0348510742188,20.230947494506836,57.66144561767578,-16.99040474926229,-10.659847032973973,-74,-242,263,9,7,11,9,
341,218,-191,-98,714,745.5742797851562,16.731983184814453,62.83467483520508,-14.843420121620765,-7.552945452505328,-112,-107,42,9,8,9,9,
342,218,-206,-80,709,742.6419067382812,17.309629440307617,68.77306365966797,-16.104377837422287,-6.184103020739886,-6,-96,393,7,8,10,8,
343,218,-213,-117,766,803.6255493164062,17.59984016418457,61.21669006347656,-15.369853732277395,-8.371457682837862,-135,-246,548,6,5,7,6,
344,218,-213,-135,783,822.607421875,17.84991455078125,57.62975311279297,-15.006744262031841,-9.445670137375101,-145,21,85,9,8,9,6,
345,218,-231,-127,763,807.2539672851562,19.057472229003906,61.19521713256836,-16.627918282989086,-9.051574953416509,-141,235,-385,7,7,8,6,
346,218,-238,-122,738,784.9662475585938,19.918176651000977,62.85663986206055,-17.64976917682818,-8.94119608114758,-66,244,-452,9,8,12,11,
347,224,-212,-57,699,732.6622924804688,17.4333553314209,74.94779968261719,-16.81938636233423,-4.462032601080871,-289,-280,454,10,9,10,12,
348,224,-239,-72,735,776.2280883789062,18.755643844604492,73.23165130615234,-17.932672163657,-5.322191821340975,-172,236,140,13,9,9,9,
349,224,-215,-146,788,829.7499389648438,18.250707626342773,55.81708908081055,-15.017508572123377,-10.134332361201299,-267,-136,884,9,7,9,8,
350,224,-228,-135,754,799.2026977539062,19.3603515625,59.36644744873047,-16.57584400139903,-9.72493516067872,-255,-109,-322,16,11,11,13,
351,224,-243,-103,735,780.9500732421875,19.750415802001953,67.026123046875,-18.129118847630142,-7.578858593660657,-25,16,-797,7,9,12,8,
352,225,-242,-121,725,773.841064453125,20.463125228881836,63.431514739990234,-18.22357162724832,-8.995846012559365,94,-11,502,14,8,13,10,
353,225,-214,-103,693,732.5667114257812,18.914955139160156,64.29468536376953,-16.985133451315964,-8.082655543892587,-119,-102,-397,10,9,14,13,
354,225,-217,-148,767,810.7293090820312,18.90207290649414,55.70125961303711,-15.5250848604969,-10.518423648955968,-82,-258,1088,14,11,12,12,
355,225,-213,-139,740,782.4896240234375,18.966047286987305,56.868614196777344,-15.79570311474878,-10.232218257998827,-148,64,-115,11,8,9,8,
356,225,-241,-70,702,745.5098876953125,19.669544219970703,73.80059051513672,-18.860716527512867,-5.387750600942084,131,-19,117,11,9,12,13,
357,226,-234,-123,693,741.710205078125,20.87824249267578,62.268272399902344,-18.390222429779683,-9.54562656114682,-91,-233,246,9,10,10,11,
358,226,-213,-118,720,760.0611572265625,18.68326187133789,61.010440826416016,-16.274564861670278,-8.931333987288255,-124,-686,-492,10,8,11,9,
359,226,-215,-69,704,739.3253784179688,17.780981063842773,72.20381164550781,-16.90619572967913,-5.355112535666268,-30,27,225,11,8,12,12,
360,226,-203,-74,753,783.38623046875,16.008207321166992,69.96833801269531,-15.018530793628168,-5.420338466365139,-152,-334,405,10,13,16,14,
361,226,-201,-129,783,818.6152954101562,16.96087074279785,57.30440902709961,-14.213546169006772,-9.066642994120244,-552,-19,-1206,13,16,17,19,
362,233,-209,-113,753,789.5941772460938,17.50977325439453,61.59774398803711,-15.348707286971711,-8.227934836870338,-195,-273,520,12,13,13,17,
363,233,-215,-94,726,762.97900390625,17.90924835205078,66.38125610351562,-16.36707748432969,-7.076894334139425,-144,-136,815,17,17,17,18,
364,233,-228,-75,739,777.0006713867188,17.991077423095703,71.788330078125,-17.06377978072548,-5.539100255628175,-55,-264,228,15,8,13,12,
365,233,-238,-124,742,789.0399169921875,19.881900787353516,62.47663879394531,-17.555674830502824,-9.041685263967441,-44,3,1345,10,15,11,13,
366,233,-221,-172,792,840.052978515625,19.471094131469727,52.10329818725586,-15.252816896910042,-11.814805694266594,-100,82,-102,16,14,14,14,
367,233,-229,-151,739,788.2658081054688,20.361913681030273,56.5959587097168,-16.888559592086068,-11.043823207405334,23,-235,-904,11,14,15,16,
368,233,-252,-87,721,768.7092895507812,20.290193557739258,70.95015716552734,-19.13664694365127,-6.498472343004948,-38,37,-1237,15,16,15,14,
369,233,-247,-144,716,770.9740600585938,21.765640258789062,59.75444030761719,-18.685540928294962,-10.764736250254202,381,160,360,12,9,13,10,
370,233,-195,-138,766,802.3870849609375,17.318904876708984,54.709556579589844,-14.065138804444011,-9.903357139378349,-291,-19,-280,17,14,18,14,
371,237,-216,-156,777,821.4140014648438,18.925399780273438,54.15863037109375,-15.24584082075909,-10.947905832074344,141,-448,787,14,17,20,22,
372,237,-228,-66,723,760.9658203125,18.172861099243164,73.85253143310547,-17.434734863440596,-4.975622338440746,-145,359,922,15,13,15,11,
373,237,-222,-120,719,762.0006713867188,19.338125228881836,61.60348129272461,-16.93809699141333,-9.060666963254654,23,-305,-433,13,14,16,13,
374,237,-210,-133,708,750.3685913085938,19.343740463256836,57.64894485473633,-16.251996414524328,-10.20940130212367,-97,-42,-345,13,14,14,11,
375,237,-204,-95,680,716.268798828125,18.309053421020508,65.02586364746094,-16.547448472648473,-7.621698887207129,-213,-340,-246,13,18,19,17,
376,239,-211,-84,713,748.29541015625,17.6656494140625,68.28899383544922,-16.3780668742877,-6.445330553857054,-193,-31,41,24,20,18,25,
377,239,-204,-108,762,796.1934204101562,16.850421905517578,62.09925842285156,-14.845836971350597,-7.795943474773082,-175,214,703,15,16,21,20,
378,239,-270,-129,714,774.1685791015625,22.73634147644043,64.45915985107422,-20.411566034507022,-9.591959239529787,263,-19,423,16,18,21,20,
379,239,-230,-117,676,723.5779418945312,20.8912410736084,63.0343132019043,-18.533850302135818,-9.305379559429019,-115,-204,1068,11,14,17,14,
380,239,-235,-90,724,766.4861450195312,19.164100646972656,69.04095458984375,-17.854084485180223,-6.743166324957046,-190,-373,-136,16,14,13,14,
381,240,-225,-66,716,753.4168701171875,18.13079261779785,73.64868927001953,-17.37590336622878,-5.025603785713498,-209,-315,305,12,9,13,13,
382,240,-217,-126,759,799.4035034179688,18.291963577270508,59.85506820678711,-15.750710945277413,-9.068635411205056,-160,86,-964,14,12,15,17,
383,240,-239,-108,774,817.2276000976562,18.716785430908203,65.67922973632812,-17.004821482633048,-7.594088573622712,-518,110,-818,13,12,15,18,
384,240,-237,-142,765,813.3621826171875,19.855411529541016,59.068233489990234,-16.94077931251763,-10.05444903657097,-119,-170,272,17,11,14,14,
385,240,-214,-60,686,721.104736328125,17.949295043945312,74.33477783203125,-17.263517987398803,-4.772851755528035,28,-13,227,16,16,16,13,
386,251,-218,-105,762,799.4954833984375,17.614824295043945,64.27872467041016,-15.823326420045655,-7.546618094033188,-50,-144,1397,11,12,12,13,
387,251,-245,-238,813,881.8378295898438,22.78692054748535,45.826358795166016,-16.13066655768727,-15.657774064320458,135,-11,-311,14,11,14,16,
388,251,-246,-138,759,809.7166137695312,20.384302139282227,60.70512390136719,-17.686584576597074,-9.81282087906865,-170,-210,-128,14,11,12,12,
389,251,-222,-76,714,751.5690307617188,18.190448760986328,71.09854125976562,-17.18044821340947,-5.803771387936942,-67,44,17,11,9,8,14,
390,251,-267,-109,707,763.5568237304688,22.189014434814453,67.78945922851562,-20.467700100800894,-8.207180062951053,404,454,-1302,10,12,13,11,
391,252,-180,-77,663,691.3016967773438,16.44922637939453,66.83649444580078,-15.09251426963582,-6.3951078116939515,-87,-351,700,16,10,13,10,
392,252,-253,-83,660,711.6867065429688,21.968843460083008,71.83404541015625,-20.823692351674048,-6.69732377196267,-129,-660,177,22,12,15,17,
393,252,-237,-48,738,776.6060791015625,18.139699935913086,78.54766845703125,-17.768633769937964,-3.5435615844629766,128,-134,1425,11,10,14,10,
394,252,-196,-147,775,812.8037719726562,17.541118621826172,53.1263542175293,-13.953869743345404,-10.41959165625837,-317,33,194,12,8,11,12,
395,252,-255,-149,792,845.2750854492188,20.448665618896484,59.6981315612793,-17.558351432815893,-10.152803938231033,-102,-58,-1162,11,10,10,10,
396,249,-241,-72,690,734.4147338867188,20.026226043701172,73.36306762695312,-19.156675532765547,-5.626157714277,23,190,-984,12,10,12,11,
397,249,-231,-90,732,772.8421630859375,18.70807647705078,68.71031188964844,-17.39135072200918,-6.687454804227056,13,-108,179,10,12,11,12,
398,249,-224,-134,753,796.9573364257812,19.116350173950195,59.10795974731445,-16.324016152467006,-9.67966262161825,-22,7,255,11,14,10,9,
399,249,-199,-159,775,815.7861328125,18.192033767700195,51.37152862548828,-14.118992046880601,-11.239117121012086,-273,-143,673,18,16,20,20,
400,249,-229,-103,714,756.8659057617188,19.37352752685547,65.77928924560547,-17.611638312391023,-7.82151027653541,-212,-64,504,16,15,14,13,
401,254,-252,-90,753,799.1326293945312,19.561309814453125,70.34294128417969,-18.38145447812122,-6.466490497432403,-8,18,705,13,14,11,16,
402,254,-180,-120,646,681.2606201171875,18.512605667114258,56.30628204345703,-15.320376989754788,-10.145241572273367,-316,-260,-310,20,15,19,15,
403,254,-236,-81,716,758.2301635742188,19.210466384887695,71.05352783203125,-18.134645642553334,-6.132479498375575,-17,-93,-450,12,16,18,17,
404,254,-228,-77,701,741.1572265625,18.945098876953125,71.33597564697266,-17.916283222100994,-5.96331006133756,234,-290,-725,15,13,15,14,
405,255,-237,-105,768,810.5664672851562,18.648645401000977,66.10147857666016,-17.00098306793396,-7.442955865449932,59,-111,-269,13,12,12,14,
406,255,-177,-83,683,710.4273071289062,15.970463752746582,64.87347412109375,-14.426971879403307,-6.7092508043716625,-415,-109,34,15,20,14,11,
407,255,-234,-94,693,737.4557495117188,19.99378204345703,68.11090850830078,-18.500151813474233,-7.323144577201596,5,-147,1441,15,16,17,17,
408,255,-219,-127,750,791.5744018554688,18.64983367919922,59.88665008544922,-16.06119214648622,-9.232422109885256,-137,-251,841,14,12,12,13,
409,255,-208,-73,725,757.771728515625,16.909873962402344,70.65766143798828,-15.931563802334212,-5.528166695435125,-154,-269,10,25,29,25,24,
410,261,-218,-83,771,805.5147705078125,16.831024169921875,69.15320587158203,-15.70202090201148,-5.914237193711333,-296,12,-312,23,24,27,25,
411,261,-237,-208,795,855.253173828125,21.63331413269043,48.72473907470703,-16.087851128952977,-14.0756518597945,-192,-289,-322,25,21,21,20,
412,261,-263,-155,793,849.7311401367188,21.052902221679688,59.48332977294922,-18.029683218777283,-10.510204362813742,-311,-74,-1032,18,26,17,25,
413,261,-234,-92,703,746.6116943359375,19.678089141845703,68.53382110595703,-18.265211886283353,-7.078168633846376,-157,-701,883,22,19,20,19,
414,261,-234,-51,702,741.7283935546875,18.83540916442871,77.70171356201172,-18.38975499735034,-3.9426725186211975,119,-259,1968,18,18,22,18,
415,266,-211,-87,734,768.6651000976562,17.270580291748047,67.58924102783203,-15.932331002615534,-6.498847896172632,210,96,-86,14,18,12,19,
416,266,-204,-127,765,801.8541259765625,17.43641471862793,58.09211730957031,-14.738649723440037,-9.113048001785568,-276,109,-366,17,27,23,19,
417,266,-240,-108,732,777.8740234375,19.773277282714844,65.76889038085938,-17.970859443992367,-7.980725402003702,-93,-79,-1453,18,21,14,17,
418,266,-273,-109,751,806.4806518554688,21.374300003051758,68.23149108886719,-19.78598856460253,-7.767590839023686,362,31,-667,14,12,18,17,
419,266,-241,-104,742,787.0584716796875,19.47914695739746,66.65475463867188,-17.83058007381978,-7.593132503549153,-85,-130,1003,13,12,14,15,
420,266,-214,-118,729,768.8699340820312,18.53017234802246,61.12407302856445,-16.16059226240408,-8.828187333396983,-95,-519,112,14,14,13,14,
421,266,-226,-77,729,767.1023559570312,18.132186889648438,71.18240356445312,-17.134463792433962,-5.760922890882723,-38,-255,694,15,17,15,17,
422,266,-234,-86,723,764.775146484375,19.022993087768555,69.81729125976562,-17.81666891855049,-6.456644849551742,10,-166,-102,10,12,11,12,
423,266,-235,-112,733,777.854736328125,19.55040740966797,64.51432037353516,-17.58455679688236,-8.278550750399237,158,-25,88,6,9,7,6,
424,266,-209,-117,732,770.1908569335938,18.116682052612305,60.75599670410156,-15.745288202088117,-8.737652882897777,-89,-218,68,12,7,9,6,
425,268,-234,-118,669,718.4991455078125,21.38984489440918,63.235958099365234,-19.006710469543464,-9.452578309699335,275,-173,-751,9,9,11,13,
426,268,-206,-75,730,762.2079467773438,16.71351432800293,69.99131774902344,-15.680181809105989,-5.646947252505013,-19,-241,-427,10,10,9,10,
427,268,-233,-162,776,826.2620849609375,20.085411071777344,55.18623352050781,-16.379180689909095,-11.30686884901423,13,-294,701,9,9,13,9,
428,268,-196,-165,759,801.0755004882812,18.650312423706055,49.90425491333008,-14.162395359608142,-11.886468619136945,59,-33,773,15,16,18,17,
429,268,-220,-120,741,782.2282104492188,18.682954788208008,61.386043548583984,-16.33469386270545,-8.82447209970923,41,-120,401,15,18,18,17,
430,271,-237,-69,723,763.9757690429688,18.848360061645508,73.76451873779297,-18.072444398433856,-5.1818440515963555,10,-243,614,18,20,19,24,
431,271,-227,-57,761,796.177734375,17.093229293823242,75.90131378173828,-16.565556322262267,-4.105434658652364,-99,312,-13,17,19,23,23,
432,271,-230,-114,759,801.2346801757812,18.68400001525879,63.63115310668945,-16.681843082758927,-8.179825475551114,-140,-36,-786,19,18,17,17,
433,271,-209,-155,720,765.5756225585938,19.867488861083984,53.434635162353516,-15.842696213615918,-11.680969645675361,-100,-275,-183,14,18,20,21,
434,271,-238,-81,720,762.6303100585938,19.245840072631836,71.20149993896484,-18.184493745134944,-6.096962438403305,30,-37,726,20,19,20,22,
435,276,-230,-81,690,731.8203125,19.461345672607422,70.59583282470703,-18.317642650010818,-6.35468350323619,25,-33,762,13,14,18,17,
436,276,-218,-181,696,751.4658813476562,22.14954948425293,50.294158935546875,-16.8639224303318,-13.937454883976809,-82,-163,-434,11,12,14,12,
437,276,-220,-100,756,793.68505859375,17.7247257232666,65.55267333984375,-16.09244879917644,-7.238193841775351,37,149,166,16,15,13,15,
438,276,-231,-147,747,795.5997924804688,20.12791633605957,57.52519226074219,-16.878730979388337,-10.647505547279938,7,-231,29,12,12,13,15,
439,276,-228,-97,709,751.048583984375,19.261037826538086,66.94989013671875,-17.672486742586162,-7.420636341378252,8,-99,-519,10,8,11,10,
440,273,-228,-156,709,760.921142578125,21.286270141601562,55.615989685058594,-17.435791450435886,-11.83035789977222,6,-196,283,10,9,11,10,
441,273,-239,-102,715,760.7562255859375,19.97083282470703,66.88493347167969,-18.310177167598805,-7.705257554812911,58,-302,621,14,10,10,12,
442,273,-203,-132,717,756.7839965820312,18.65855598449707,56.962589263916016,-15.559584137732223,-10.045041048280087,-26,-399,-215,11,6,8,11,
443,273,-216,-63,693,728.6110229492188,17.985210418701172,73.73666381835938,-17.24477509179732,-4.960324628330211,-45,-134,644,12,11,12,10,
444,280,-231,-135,770,815.1600952148438,19.158958435058594,59.69377517700195,-16.462032489513746,-9.532767558165723,-69,-47,276,8,7,9,9,
445,280,-220,-102,728,767.3251953125,18.42070198059082,65.1224594116211,-16.66110506492652,-7.638897965381145,-37,-156,-269,8,9,9,9,
446,280,-204,-123,730,767.8834838867188,18.070316314697266,58.90892028808594,-15.406489672589379,-9.217376585658767,-29,-354,-336,12,8,11,11,
447,280,-221,-72,743,778.507568359375,17.369108200073242,71.95162963867188,-16.491703483954478,-5.306563548726383,12,-97,55,8,6,9,11,
448,280,-223,-84,748,785.040771484375,17.668581008911133,69.35626983642578,-16.502769004090386,-6.142454248186775,17,155,950,7,10,8,7,
449,282,-225,-141,779,823.0109252929688,18.8200740814209,57.922393798828125,-15.8658774242023,-9.864700336946605,-59,-237,7,9,10,9,11,
450,282,-231,-169,747,799.9568481445312,20.96277618408203,53.807003021240234,-16.78406673011636,-12.19628308060103,14,-126,43,12,10,11,10,
451,282,-219,-91,735,772.312744140625,17.8806095123291,67.43256378173828,-16.473023670414037,-6.766761731844696,81,-177,-266,12,10,10,9,
452,282,-219,-109,720,760.4222412109375,18.763532638549805,63.5362663269043,-16.73813021696251,-8.241245869390378,23,-252,-253,6,8,10,8,
453,282,-225,-104,751,790.8489379882812,18.26372528076172,65.18919372558594,-16.529226861505048,-7.55652633643535,-149,-249,137,10,10,10,9,
454,281,-252,-152,757,812.1926879882812,21.24213218688965,58.899112701416016,-18.075574489025406,-10.786373971403153,-69,-230,186,11,6,7,8,
455,281,-217,-126,754,794.6577758789062,18.405128479003906,59.85506820678711,-15.84724142248315,-9.123254793200513,36,-160,524,11,9,7,9,
456,281,-205,-90,731,764.516845703125,17.02629852294922,66.29399871826172,-15.553806869694306,-6.760616812791627,-56,14,463,7,8,9,10,
457,281,-202,-138,711,751.9102172851562,18.985050201416016,55.656673431396484,-15.583895633602825,-10.575588678147675,-1,-229,236,10,9,11,11,
458,281,-235,-86,750,790.6459350585938,18.449472427368164,69.89627838134766,-17.29102598946316,-6.244521390216807,39,70,-3,8,8,8,11,
459,292,-232,-98,758,798.7440185546875,18.377206802368164,67.0968017578125,-16.88525869339547,-7.047527244503046,18,-198,-79,6,8,5,5,
460,292,-216,-70,755,788.4041137695312,16.736026763916016,72.04065704345703,-15.90071280311198,-5.093825498428251,-132,-277,603,6,7,7,10,
461,292,-225,-87,694,734.7312622070312,19.16535758972168,68.85690307617188,-17.832445300937984,-6.800385222796634,-21,-22,156,12,15,15,17,
462,292,-236,-97,703,747.8729858398438,19.946516036987305,67.65319061279297,-18.39472076672828,-7.452324342435054,-55,-181,694,10,10,10,12,
463,292,-245,-112,722,770.6185913085938,20.459060668945312,65.42945098876953,-18.53756924808116,-8.356840212922334,80,-599,-948,17,13,14,11,
464,293,-219,-54,702,737.3472900390625,17.810577392578125,76.14551544189453,-17.278144588092136,-4.199845348890955,-63,-351,753,18,26,16,18,
465,293,-227,-85,734,772.9877319335938,18.272899627685547,69.46835327148438,-17.07754592759741,-6.31317913928515,-44,-39,498,17,13,19,11,
466,293,-210,-138,777,816.6229248046875,17.919269561767578,56.685726165771484,-14.901413339125334,-9.729021855385398,-9,243,405,15,16,15,16,
467,293,-201,-173,794,837.11767578125,18.46734046936035,49.27767562866211,-13.893009847529166,-11.926779403685796,22,146,6,15,23,19,21,
468,293,-243,-101,753,797.658447265625,19.261106491088867,67.42706298828125,-17.736607088695365,-7.274353656032542,9,-51,-98,15,17,21,14,
469,295,-238,-129,738,786.0845947265625,20.14190673828125,61.5380744934082,-17.62383516807065,-9.445215504994986,-41,-175,41,16,15,17,15,
470,295,-204,-123,755,791.6880493164062,17.509008407592773,58.90892028808594,-14.932282544665219,-8.937920462125374,61,-343,340,13,15,13,15,
471,295,-195,-129,763,798.0194091796875,17.034589767456055,56.51018524169922,-14.143716768749899,-9.30269276394501,62,57,90,13,20,15,20,
472,295,-218,-163,805,849.7752685546875,18.680194854736328,53.2105598449707,-14.864762644221063,-11.058749077238646,38,46,-967,26,14,19,15,
473,295,-230,-104,748,789.44287109375,18.645387649536133,65.66539001464844,-16.93847933220829,-7.570063990374182,-38,398,-321,21,17,17,16,
474,300,-231,-123,628,680.3484497070312,22.620927810668945,61.96266555786133,-19.848357593430443,-10.415761789302422,60,-100,403,19,30,32,32,
475,300,-218,-147,729,774.9671020507812,19.83099937438965,56.00407791137695,-16.33794337515243,-10.934429323591893,40,-257,678,12,13,17,16,
476,300,-242,-39,683,725.6541748046875,19.740524291992188,80.84217071533203,-19.48087450383699,-3.0808235879597388,23,-788,287,17,17,23,19,
477,300,-222,-79,693,731.9658203125,18.7772216796875,70.40837097167969,-17.655486492840748,-6.195918300620933,-123,-197,-711,16,20,15,15,
478,300,-231,-72,690,731.1942138671875,19.322040557861328,72.68518829345703,-18.416454722860426,-5.651018298933156,44,-119,-143,14,25,23,19,
479,302,-207,-153,714,758.9822387695312,19.822824478149414,53.52703857421875,-15.827000759902843,-11.629704811899838,107,-422,194,16,16,15,16,
480,302,-227,-98,682,725.4357299804688,19.925437927246094,66.64592742919922,-18.23501317382021,-7.763894893815452,57,-616,-134,13,12,12,13,
481,302,-234,-97,729,771.755126953125,19.158889770507812,67.48120880126953,-17.650203551439834,-7.220461671335916,-14,-774,-188,10,11,10,12,
482,302,-207,-75,753,784.5272216796875,16.29610824584961,70.08035278320312,-15.298819046531094,-5.485795419746382,12,13,524,14,10,13,14,
483,302,-205,-154,756,798.2963256835938,18.73244857788086,53.081668853759766,-14.880084713188065,-11.12270558206065,21,-196,716,12,13,15,15,
484,303,-201,-120,718,755.1986694335938,18.055877685546875,59.15861129760742,-15.435602525100993,-9.142972194940736,-37,-174,651,11,14,17,14,
485,303,-229,-76,748,785.9522705078125,17.875991821289062,71.63694763183594,-16.93977133942567,-5.549057001081383,61,-41,-410,12,17,17,20,
486,303,-234,-81,738,778.4349975585938,18.5461483001709,70.90328979492188,-17.49383302768532,-5.972720061540017,17,-95,-1051,19,23,22,23,
487,303,-207,-156,750,793.5269165039062,19.063100814819336,52.99372100830078,-15.121139733455358,-11.33766167858785,-243,37,671,22,23,26,27,
488,300,-215,-144,751,794.3311767578125,19.010055541992188,56.1834602355957,-15.704018515658293,-10.444592508245362,-53,-114,542,20,25,26,28,
489,300,-212,-84,717,752.3888549804688,17.640636444091797,68.38192749023438,-16.365823890095676,-6.410116475022585,-56,-75,543,19,21,23,27,
490,300,-225,-94,715,755.4376220703125,18.82952117919922,67.32258605957031,-17.32795106256765,-7.147908748428719,7,-194,764,22,19,23,25,
491,300,-233,-100,708,752.0325927734375,19.70166015625,66.76840209960938,-18.04880519028583,-7.6414224275772975,-19,-240,-90,22,23,23,26,
492,300,-217,-81,726,762.0538330078125,17.692747116088867,69.52754974365234,-16.544311700655904,-6.101592452897084,-45,-131,-635,17,19,20,23,
493,309,-214,-132,747,788.1808471679688,18.600833892822266,58.32919692993164,-15.75421794788159,-9.640999609974436,16,-156,-469,22,17,23,24,
494,309,-248,-78,729,773.9696655273438,19.625242233276367,72.53762817382812,-18.688689890727865,-5.78403898805518,117,-251,442,23,22,20,21,
495,309,-225,-129,717,762.4663696289062,19.88426399230957,60.16937255859375,-17.163232488074783,-9.740598519758931,11,-361,364,23,25,21,22,
496,309,-223,-102,715,755.8822631835938,18.928104400634766,65.41730499267578,-17.158706032727185,-7.755245792162264,-67,-315,843,13,15,15,16,
497,309,-237,-93,728,771.2340698242188,19.27350425720215,68.57141876220703,-17.89657298093451,-6.925921083088153,8,-164,510,12,14,13,15,
498,317,-212,-82,741,775.0800170898438,17.051536560058594,68.85063171386719,-15.873844414761672,-6.073002449376985,-71,-120,-260,10,13,9,9,
499,317,-209,-145,757,798.5956420898438,18.57172203063965,55.24418258666992,-15.171517107818305,-10.461147487539714,-12,-163,-633,13,16,9,7,
500,317,-229,-174,772,823.8331298828125,20.430633544921875,52.767757415771484,-16.13902076562834,-12.19314324800091,-85,-176,-319,14,13,12,13,
501,317,-223,-125,705,749.9193115234375,19.929384231567383,60.72419357299805,-17.299426555556572,-9.595110045680729,34,-119,111,16,15,14,11,
502,317,-210,-84,722,756.59765625,17.39177894592285,68.19529724121094,-16.114533736689726,-6.374310150164552,-98,-156,733,10,8,11,11,
503,318,-205,-136,741,780.7701416015625,18.363927841186523,56.43547439575195,-15.222093464789882,-10.031349485130733,-228,-222,974,11,9,10,9,
504,318,-220,-95,730,768.3261108398438,18.171201705932617,66.6410903930664,-16.63876919854186,-7.1025369509595215,-100,-227,746,10,10,11,7,
505,318,-230,-86,720,760.720703125,18.82958984375,69.49531555175781,-17.598495671160816,-6.491204474017143,40,-287,23,7,8,9,8,
506,318,-228,-72,744,781.4755249023438,17.813650131225586,72.47126007080078,-16.96310112792029,-5.286352155235195,42,-108,-521,8,8,11,10,
507,318,-235,-125,748,793.9483642578125,19.586082458496094,61.98735046386719,-17.216853013951734,-9.058392047230075,-87,-208,-625,8,11,9,7,
508,313,-213,-135,760,800.7459106445312,18.354446411132812,57.62975311279297,-15.426499443705017,-9.706012005481986,-121,-198,-576,6,7,7,8,
509,313,-273,-89,699,755.6791381835938,22.33029556274414,71.94046783447266,-21.177869097758943,-6.763700163675594,152,-128,710,13,6,9,11,
510,313,-204,-100,732,766.4463500976562,17.240676879882812,63.882659912109375,-15.436096378303919,-7.496884252010001,-168,-146,1503,6,7,8,10,
511,313,-201,-136,724,763.5921630859375,18.529203414916992,55.91338348388672,-15.261777090009712,-10.259432613867602,-170,-238,755,7,7,8,7,
512,313,-219,-104,721,760.66943359375,18.583354949951172,64.59420776367188,-16.732530787050493,-7.858187795927669,-88,-236,284,8,9,14,10,
513,319,-228,-69,713,751.7406616210938,18.472278594970703,73.15937805175781,-17.65568202285475,-5.2664188110483225,-207,-33,-164,10,16,13,8,
514,319,-212,-74,754,786.724853515625,16.581558227539062,70.75489807128906,-15.63282595700463,-5.397267797010574,-264,57,63,5,8,6,7,
515,319,-198,-157,777,817.056884765625,18.013145446777344,51.58428192138672,-14.024287542859476,-11.078462046421967,-178,285,-352,11,10,11,12,
516,319,-221,-129,764,805.7158203125,18.51567268371582,59.72389602661133,-15.919722418630053,-9.213053300088701,-62,115,41,9,9,14,14,
517,319,-191,-99,703,735.180908203125,17.01304054260254,62.597713470458984,-15.058194731911566,-7.739001955093113,-219,15,1694,11,11,10,9,
518,336,-241,-90,705,750.4705200195312,20.04511833190918,69.5188980102539,-18.73138930190146,-6.887760526148002,-58,20,-128,13,13,13,12,
519,336,-215,-118,710,751.1651000976562,19.05418586730957,61.236881256103516,-16.631909171142443,-9.037989039527206,-191,-69,32,7,6,9,9,
520,336,-222,-97,705,745.4649658203125,18.96268653869629,66.39435577392578,-17.325557009603354,-7.4765344600779695,-58,-235,-215,8,11,8,7,
521,336,-230,-121,732,776.7657470703125,19.54463005065918,62.24825668334961,-17.2234842073377,-8.961695564822877,80,-81,-292,8,10,7,8,
522,336,-244,-78,712,756.6795654296875,19.785686492919922,72.26919555664062,-18.81184865064939,-5.916670139637304,14,-44,-137,6,11,9,12,
523,324,-213,-137,716,759.4695434570312,19.477008819580078,57.24755096435547,-16.287595583390793,-10.392422375934027,-117,-176,-81,13,6,8,9,
524,324,-206,-107,712,748.8851928710938,18.055261611938477,62.54838562011719,-15.966516465244233,-8.214478754725855,-177,-307,940,9,12,13,10,
525,324,-245,-101,710,757.843017578125,20.465639114379883,67.59303283691406,-18.861762762666217,-7.658766997701535,51,-310,960,10,9,10,7,
526,324,-222,-109,768,806.8388671875,17.847755432128906,63.84595489501953,-15.970826221056475,-7.764120456814508,117,-211,538,11,10,13,15,
527,324,-219,-128,746,787.9473266601562,18.777528762817383,59.691246032714844,-16.137138282533538,-9.348981038488734,95,-181,-98,15,12,16,13,
528,326,-251,-147,757,810.9617919921875,21.017288208007812,59.64075469970703,-18.029645434324408,-10.443523987212565,211,-195,-938,9,9,12,10,
529,326,-224,-98,732,771.7538452148438,18.468015670776367,66.36727142333984,-16.872803185489765,-7.295314523822109,155,-343,-1167,10,13,14,14,
530,326,-244,-66,685,730.1486206054688,20.25227165222168,74.86106872558594,-19.522593289572878,-5.186190978443819,51,-156,307,15,20,16,14,
531,326,-231,-83,762,800.5585327148438,17.85288429260254,70.23302459716797,-16.77107900268906,-5.95098353542941,86,-79,666,17,14,15,12,
532,326,-207,-155,807,847.42138671875,17.765722274780273,53.17066955566406,-14.138723526063606,-10.539178278166148,132,-317,727,13,13,15,12,
533,338,-249,-141,768,819.5767211914062,20.43291473388672,60.47511672973633,-17.68690759835672,-9.906451692670103,79,-38,796,16,17,15,12,
534,338,-230,-95,726,767.4639892578125,18.917818069458008,67.5539321899414,-17.4388839841897,-7.110556463441733,-15,45,332,10,18,11,9,
535,338,-236,-103,720,764.6600341796875,19.676776885986328,66.4182357788086,-17.976921056568845,-7.741294678208889,237,-233,-546,16,23,17,16,
536,338,-217,-126,771,810.8057861328125,18.025781631469727,59.85506820678711,-15.523583704996515,-8.94005168361803,-33,-241,-404,17,15,12,15,
537,338,-213,-129,765,804.5091552734375,18.02866554260254,58.79591751098633,-15.352556036158266,-9.22699235045689,-118,-77,-57,13,15,13,14,
538,341,-175,-98,705,732.9761352539062,15.878806114196777,60.74766159057617,-13.812933076541498,-7.6835400496089505,-110,272,756,10,10,11,11,
539,341,-162,-69,736,756.7700805664062,13.45241928100586,66.9262466430664,-12.36083420533026,-5.231320490147685,-123,74,1615,13,12,15,13,
540,341,-196,-128,745,780.9129028320312,17.441627502441406,56.849365234375,-14.536001774250602,-9.433961818941972,-293,-232,994,18,11,18,17,
541,341,-208,-96,717,752.707763671875,17.716815948486328,65.22148895263672,-16.041626535013126,-7.327434479764743,-86,-237,381,17,15,18,18,
542,340,-184,-79,718,745.39990234375,15.581007957458496,66.760498046875,-14.291033630159198,-6.083826230725028,-83,-387,-1011,11,9,10,14,
543,340,-220,-87,725,762.6231079101562,18.070112228393555,68.420166015625,-16.76685896403743,-6.55056040159626,77,109,-783,9,12,13,12,
544,340,-219,-129,714,757.8905029296875,19.592599868774414,59.49660873413086,-16.795700066078396,-9.799987624854758,-339,-120,1308,12,16,14,16,
545,340,-254,-110,714,765.7754516601562,21.187761306762695,66.58062744140625,-19.371379753232585,-8.258836315752884,-44,-307,604,12,20,14,15,
546,340,-187,-81,706,734.8237915039062,16.098772048950195,66.5765609741211,-14.742939567987928,-6.3286035515601515,-128,81,145,8,13,7,8,
547,339,-224,-102,748,787.4541015625,18.211719512939453,65.51414489746094,-16.526633574806773,-7.442511970400108,-171,-192,-53,10,7,9,10,
548,339,-207,-99,740,774.758056640625,17.22523307800293,64.4366226196289,-15.496540633070472,-7.341431605963319,-256,13,-241,6,11,6,8,
549,339,-212,-135,719,761.6626586914062,19.265552520751953,57.50770568847656,-16.161062995308974,-10.209261205862521,-15,-338,50,8,10,9,9,
550,339,-194,-123,762,795.8699340820312,16.77336883544922,57.620845794677734,-14.108471712848965,-8.890574578966673,-27,-206,30,8,10,11,10,
551,339,-220,-128,741,783.495361328125,18.955049514770508,59.8048210144043,-16.307537871306465,-9.402584277757597,-54,-512,-19,12,12,13,13,
552,345,-213,-79,763,796.1023559570312,16.57839584350586,69.64732360839844,-15.518739193396367,-5.695031870924871,-108,120,241,9,13,9,9,
553,345,-220,-166,769,816.8947143554688,19.71504783630371,52.96003341674805,-15.623363469310865,-11.724649791582957,95,93,898,13,19,18,14,
554,345,-223,-157,774,820.6424560546875,19.408117294311523,54.849388122558594,-15.767733556588283,-11.029450205721874,-40,16,-441,13,11,12,12,
555,345,-238,-71,714,755.963623046875,19.178123474121094,73.38599395751953,-18.3505491554381,-5.389154560079115,168,-50,152,12,11,11,12,
556,345,-241,-67,719,761.2693481445312,19.18068504333496,74.46051025390625,-18.456013386075718,-5.049185968178355,152,177,410,15,11,18,14,
557,343,-209,-81,749,781.8203125,16.658283233642578,68.81239318847656,-15.505141835356985,-5.946764239270535,-206,144,-478,10,10,10,11,
558,343,-206,-157,770,812.3945922851562,18.589473724365234,52.683921813964844,-14.688947585564296,-11.142852421110325,-214,-92,379,13,9,12,10,
559,343,-222,-101,729,768.7171020507812,18.496156692504883,65.5332260131836,-16.78569904970653,-7.549791542913001,-29,0,864,10,8,9,8,
560,343,-223,-103,748,787.3004760742188,18.177698135375977,65.2051773071289,-16.454054553648376,-7.517372625983137,-77,34,-242,11,10,10,8,
561,343,-205,-147,746,787.4960327148438,18.680721282958984,54.352996826171875,-15.08897778700572,-10.758373087373693,85,-176,123,9,9,13,13,
562,353,-200,-124,739,775.5623779296875,17.660991668701172,58.19749450683594,-14.94415105880309,-9.200162109086845,-100,-317,498,10,9,11,11,
563,353,-206,-80,697,731.1942138671875,17.58944320678711,68.77306365966797,-16.363536763627746,-6.2813088918362565,-117,-265,1127,10,7,8,10,
564,353,-207,-70,740,771.588623046875,16.44923210144043,71.31309509277344,-15.561804051062783,-5.20513988327668,-124,-429,-78,14,10,14,10,
565,353,-216,-86,739,774.7083129882812,17.461538314819336,68.28681945800781,-16.189469554961303,-6.373513225980334,-129,248,-520,10,8,9,10,
566,353,-222,-138,693,740.6598510742188,20.6641845703125,58.13042068481445,-17.44155129437494,-10.738121353756338,-14,-250,884,14,9,12,5,
567,349,-190,-142,703,741.9386596679688,18.642881393432617,53.22297668457031,-14.83793665109875,-11.033942189907284,-127,-295,-915,15,9,13,14,
568,349,-204,-80,713,745.9121704101562,17.08155632019043,68.58374786376953,-15.872086091981094,-6.156885106848797,-88,-172,-285,14,11,13,16,
569,349,-210,-66,729,761.5097045898438,16.799938201904297,72.54964447021484,-16.007786952616282,-4.9720599237732666,-200,210,286,14,11,12,9,
570,349,-211,-186,782,831.0481567382812,19.781070709228516,48.599403381347656,-14.708192297951086,-12.933132265745366,-211,176,273,9,9,10,9,
571,349,-234,-164,804,853.2689819335938,19.563549041748047,54.971431732177734,-15.916693847557482,-11.081317695364964,-257,170,634,10,10,12,11,
572,355,-228,-87,741,780.1499633789062,18.226240158081055,69.11093139648438,-16.992797956139633,-6.40277239945915,-195,-49,548,12,10,10,7,
573,355,-220,-90,741,778.1908569335938,17.783023834228516,67.74766540527344,-16.42183351460361,-6.6412826206653435,-112,-336,222,12,13,17,10,
574,355,-210,-135,789,827.55419921875,17.555906295776367,57.26115798950195,-14.700110238231806,-9.38869526631983,-132,-16,-591,10,10,8,8,
575,355,-223,-138,775,818.16748046875,18.692790985107422,58.24577331542969,-15.816678802760272,-9.710477293175549,13,20,-517,8,8,11,9,
576,355,-238,-141,728,778.786865234375,20.804166793823242,59.352378845214844,-17.794475942391582,-10.430972871224602,-55,-77,-61,10,6,11,11,
577,354,-255,-86,714,763.0314331054688,20.64972496032715,71.35986328125,-19.523490434699866,-6.471462539115572,184,208,-206,16,11,15,8,
578,354,-231,-115,724,768.6104125976562,19.614627838134766,63.53081512451172,-17.490181902263018,-8.604943860814116,164,-52,828,12,8,12,10,
579,354,-231,-111,724,768.0221557617188,19.491106033325195,64.33140563964844,-17.504012041670883,-8.30989466418758,-40,-216,635,8,8,8,9,
580,354,-202,-128,700,739.7215576171875,18.859540939331055,57.63546371459961,-15.847372395648666,-9.964506655844684,-156,-265,-588,12,8,13,8,
581,360,-217,-66,725,759.6512451171875,17.37005043029785,73.07984161376953,-16.598148785732203,-4.984254560255395,-177,-83,-282,10,7,12,13,
582,360,-237,-161,781,831.8960571289062,20.143735885620117,55.807090759277344,-16.5523554414854,-11.159085032068651,-99,-251,788,9,8,10,10,
583,360,-198,-161,785,825.4392700195312,18.006725311279297,50.88054656982422,-13.87900225212249,-11.247507808572884,-78,27,-139,9,8,7,9,
584,360,-201,-103,718,752.6845092773438,17.459339141845703,62.864234924316406,-15.48845196193723,-7.86523522690928,-117,-321,0,11,9,10,10,
585,360,-222,-62,720,755.9946899414062,17.749404907226562,74.39293670654297,-17.076773864335124,-4.704176442942655,-180,64,1192,10,8,12,10,
586,358,-245,-88,761,804.2947387695312,18.8828182220459,70.23930358886719,-17.734985182014096,-6.2814573201442965,27,-270,600,13,9,11,11,
587,358,-212,-135,782,821.39697265625,17.815248489379883,57.50770568847656,-14.957167796614517,-9.4597176107172,-124,-195,-608,12,9,11,11,
588,358,-195,-126,752,787.0228881835938,17.15494155883789,57.12769317626953,-14.345542062147894,-9.212526444324007,-59,-25,207,10,9,9,10,
589,358,-272,-106,741,796.43017578125,21.500457763671875,68.70556640625,-19.969750537022414,-7.64841405698531,-66,382,-140,11,8,12,8,
590,358,-291,-123,724,789.9278564453125,23.572742462158203,67.0838394165039,-21.61624013868294,-8.958000855152191,419,-3,-2204,11,8,10,11,
591,367,-201,-144,750,789.7069091796875,18.244163513183594,54.377803802490234,-14.745429697269408,-10.506445277125827,4,-298,1044,11,6,8,10,
592,367,-218,-109,731,770.5621337890625,18.437408447265625,63.431514739990234,-16.433980356518106,-8.132059606172684,-112,-220,1408,6,8,7,7,
593,367,-229,-163,740,791.5870361328125,20.797117233276367,54.55339813232422,-16.815589703285433,-11.883094152427448,-85,-9,242,11,8,10,9,
594,367,-222,-90,762,798.7665405273438,17.449420928955078,67.92879486083984,-16.136610776658095,-6.4694669983072695,-56,76,143,8,7,9,7,
595,367,-215,-112,717,756.8738403320312,18.678686141967773,62.48016357421875,-16.50285943918625,-8.509715079385101,-36,-121,-69,4,5,7,9,
596,373,-202,-80,693,726.2595825195312,17.404769897460938,68.39118194580078,-16.149073972139654,-6.324161358958149,-212,-112,-640,8,6,9,8,
597,373,-202,-136,714,754.384521484375,18.830293655395508,56.04523849487305,-15.531490276987238,-10.386035397805333,-76,-455,-999,10,8,11,8,
598,373,-231,-51,735,772.1314697265625,17.8388614654541,77.54698181152344,-17.40786939426688,-3.787196580855865,-128,-44,847,11,9,12,13,
599,373,-260,-153,735,794.5023803710938,22.313451766967773,59.521278381347656,-19.101877936422078,-11.10300159021686,25,8,404,16,9,12,15,
600,373,-221,-104,742,781.1664428710938,18.2181339263916,64.79548645019531,-16.433975228850997,-7.650745860393965,-164,-317,909,11,9,14,15,
601,377,-231,-97,693,736.8982543945312,19.874311447143555,67.2184829711914,-18.26884322808213,-7.563957565987289,137,-292,895,9,6,10,10,
602,377,-226,-93,721,761.2922973632812,18.72227668762207,67.62930297851562,-17.269322306206156,-7.0168189445781115,222,-446,-824,8,8,10,10,
603,377,-246,-93,762,806.1072998046875,19.039220809936523,69.2876968383789,-17.768409066824784,-6.624923552271751,65,-95,-841,8,8,9,7,
604,377,-219,-210,795,850.9324340820312,20.88755226135254,46.19789123535156,-14.913752163079488,-14.287529707202793,-98,62,-172,13,7,10,9,
605,377,-228,-136,741,787.1219482421875,19.709186553955078,59.180728912353516,-16.83777288592802,-9.949572384842966,-149,191,504,11,9,12,11,
606,376,-240,-79,703,747.0274658203125,19.767053604125977,71.77698516845703,-18.73994845084015,-6.070521512098715,-131,285,267,17,7,8,12,
607,376,-226,-87,756,793.8394165039062,17.759540557861328,68.94222259521484,-16.54045933090419,-6.29190939403965,-61,-240,871,12,7,6,7,
608,376,-213,-139,762,803.3268432617188,18.45600128173828,56.868614196777344,-15.37570995629405,-9.964062557526482,-158,70,845,13,8,8,8,
609,376,-183,-135,806,837.4664306640625,15.753844261169434,53.579891204833984,-12.621898686990438,-9.276584034305042,-400,73,-1414,10,9,10,9,
610,376,-282,-82,730,786.8595581054688,21.91298484802246,73.78348541259766,-21.00115009212235,-5.981752996810305,-164,61,-331,14,12,12,11,
611,382,-258,-120,756,807.7747192382812,20.623188018798828,65.05270385742188,-18.62640035714587,-8.543269590347556,246,-164,209,10,8,9,12,
612,382,-242,-150,732,785.4221801757812,21.25192642211914,58.20433807373047,-17.94564109118528,-11.009986758589102,122,15,-1985,12,9,14,12,
613,382,-262,-156,722,783.7499389648438,22.894075393676758,59.22602844238281,-19.529386519717665,-11.481006092333072,30,-563,1651,13,9,8,11,
614,382,-192,-107,782,812.3035278320312,15.697261810302734,60.86592483520508,-13.672089784033343,-7.569236433285389,-495,-35,326,14,9,12,9,
615,382,-224,-62,723,759.43994140625,17.81885528564453,74.52556610107422,-17.15479137278967,-4.6827880874249965,-23,56,671,10,11,8,10,
616,377,-244,-141,724,776.9124755859375,21.26598358154297,59.97418975830078,-18.30429887691861,-10.456421704218666,91,-148,-119,11,7,10,9,
617,377,-201,-111,699,735.74658203125,18.182580947875977,61.087310791015625,-15.85429210088957,-8.677183559979932,-108,-300,-726,11,11,11,12,
618,377,-216,-111,717,757.01123046875,18.709415435791016,62.79841995239258,-16.578732125271358,-8.431637717146618,-12,-239,-466,7,6,6,7,
619,377,-189,-81,710,739.1765747070312,16.14957046508789,66.7980728149414,-14.81447016697103,-6.291185429433775,-55,1,-673,12,7,10,10,
620,385,-261,-94,741,791.2256469726562,20.522550582885742,70.19010925292969,-19.260762552300328,-6.823026905172565,-23,-285,1506,9,9,10,10,
621,385,-195,-182,819,861.3419799804688,18.037633895874023,46.97100830078125,-13.084682579949684,-12.198440306244086,117,21,1059,12,7,11,9,
622,385,-248,-94,673,723.3733520507812,21.506467819213867,69.23841094970703,-20.049885810787963,-7.466513971952433,-97,-179,321,12,7,12,13,
623,385,-222,-81,693,732.1843872070312,18.82745933532715,69.95150756835938,-17.65004302148818,-6.351510702991387,-19,-201,-595,10,10,9,10,
624,385,-207,-75,762,793.1696166992188,16.11365509033203,70.08035278320312,-15.128115065406737,-5.425842087988258,-224,-366,-1016,9,10,10,9,
625,388,-216,-168,782,828.4949951171875,19.2841796875,52.12123489379883,-15.11241461131409,-11.699416326750057,-90,-9,654,8,7,8,10,
626,388,-186,-164,773,811.8010864257812,17.783931732177734,48.59284591674805,-13.24527784957186,-11.655104084749777,-16,35,-693,16,12,15,12,
627,388,-240,-73,687,731.3671875,20.0574893951416,73.0788345336914,-19.15667978104318,-5.7284057860931386,15,-23,1720,10,8,9,9,
628,388,-234,-127,731,777.9755859375,20.010400772094727,61.50627136230469,-17.504496792767036,-9.395251576817891,-55,-99,203,10,8,8,10,
629,388,-215,-96,681,720.5567016601562,19.07098960876465,65.93531799316406,-17.360351713483073,-7.656300009223741,-71,-74,-578,11,11,10,8,
630,391,-221,-168,762,810.9926147460938,20.015230178833008,52.75483322143555,-15.813417332133259,-11.955595202496703,89,33,623,7,7,7,12,
631,391,-234,-129,762,807.4905395507812,19.321590423583984,61.12934494018555,-16.845184727142815,-9.192628830262153,-353,-78,-707,15,10,11,14,
632,391,-254,-83,737,783.9476928710938,19.92726707458496,71.90089416503906,-18.905074264397086,-6.077547355467234,95,-124,-640,12,9,12,12,
633,391,-240,-137,735,785.2349853515625,20.603490829467773,60.27730941772461,-17.79673141222489,-10.047820581945873,196,271,436,7,7,11,9,
634,391,-227,-104,718,760.1769409179688,19.173410415649414,65.38175201416016,-17.374416775107413,-7.863311003587654,39,-244,-793,9,9,8,10,
635,394,-261,-126,714,770.5796508789062,22.09090232849121,64.22725677490234,-19.798060025191887,-9.410878282281232,46,-680,1247,15,7,14,10,
636,394,-248,-80,707,753.4938354492188,20.230667114257812,72.11812591552734,-19.216185116691488,-6.09469848796065,309,-425,57,14,11,10,17,
637,394,-249,-117,711,762.3719482421875,21.151683807373047,64.8287353515625,-19.063279720356476,-8.82797893997754,-1,85,69,11,15,13,11,
638,394,-225,-97,737,776.6614379882812,18.38746452331543,66.67524719238281,-16.84008722149207,-7.174608100072085,-77,-67,707,7,9,9,10,
639,394,-213,-105,717,755.30322265625,18.323026657104492,63.755218505859375,-16.379961779001988,-7.990968893003256,-110,-369,140,13,10,13,13,
640,403,-231,-91,726,767.2796020507812,18.877607345581055,68.49527740478516,-17.521499605924667,-6.811359490818627,-14,-225,-876,10,9,9,10,
641,403,-208,-87,729,763.0687866210938,17.18340492248535,67.29861450195312,-15.818060863717863,-6.546717553834233,-183,97,-114,9,7,8,7,
642,403,-222,-171,792,840.1124877929688,19.482568740844727,52.39024353027344,-15.3224118134425,-11.744289408667658,-326,-85,1030,12,12,13,13,
643,403,-210,-158,777,820.2396240234375,18.684682846069336,53.03914260864258,-14.834196494162281,-11.106111889503744,-83,-74,-50,8,7,5,7,
644,403,-228,-75,720,758.9525756835938,18.434179306030273,71.788330078125,-17.482472459124917,-5.671248199033802,-99,119,700,9,7,8,7,
645,396,-266,-117,738,793.1513061523438,21.49047088623047,66.2543716430664,-19.59510383300313,-8.4828192289605,56,26,-372,11,8,6,6,
646,396,-270,-135,718,778.8767700195312,22.801393508911133,63.431514739990234,-20.28273656768743,-9.981286790970747,444,-306,-996,10,9,9,11,
647,396,-227,-76,693,733.1807250976562,19.054479598999023,71.48616027832031,-18.035721508570187,-5.949849834042848,-50,-133,292,7,7,9,6,
648,396,-235,-89,766,806.1649780273438,18.16012191772461,69.2538833618164,-16.947995941051357,-6.33833030795925,148,15,139,13,10,9,9,
649,396,-230,-108,748,789.979736328125,18.760446548461914,64.84349060058594,-16.926620032826623,-7.857649373422305,-39,-56,636,6,7,9,9,
650,401,-228,-188,756,811.7044067382812,21.3480224609375,50.48849868774414,-16.313356102883766,-13.391961067315039,3,-59,740,13,6,9,12,
651,401,-228,-103,748,788.7312622070312,18.491594314575195,65.68534851074219,-16.802396866136903,-7.503657056856856,-12,127,-589,8,7,7,5,
652,401,-226,-69,712,750.1873168945312,18.35785484313965,73.01890563964844,-17.533182906957624,-5.277354360766896,-43,-110,-458,9,6,7,7,
653,401,-254,-105,675,728.8113403320312,22.153223037719727,67.53717041015625,-20.396370880423166,-8.283440359821295,211,43,-225,9,8,7,9,
654,401,-236,-145,734,784.5234375,20.67268180847168,58.4295654296875,-17.506835151224138,-10.65096376215797,196,-262,152,10,8,8,12,
655,408,-227,-116,717,760.9691162109375,19.570215225219727,62.92890548706055,-17.35575545879985,-8.768192242759378,35,-380,526,11,6,7,10,
656,408,-218,-73,719,754.8602294921875,17.7293701171875,71.48303985595703,-16.785838767124684,-5.549555526642231,52,-100,-622,8,7,8,7,
657,408,-240,-106,760,804.012451171875,19.043537139892578,66.16719818115234,-17.367702693792264,-7.575859963100312,36,-60,63,8,11,9,8,
658,408,-204,-186,807,852.9132690429688,18.883119583129883,47.638641357421875,-13.838162931007632,-12.596058615449765,-163,-350,429,14,13,10,8,
659,408,-234,-150,725,776.4541015625,20.973731994628906,57.335472106933594,-17.5399087875494,-11.1387692751208,-23,-176,15,8,8,7,10,
660,403,-237,-83,748,789.0260009765625,18.555479049682617,70.69596099853516,-17.479847768280862,-6.038285488006893,64,3,198,6,8,9,9,
661,403,-213,-102,696,734.9755249023438,18.740734100341797,64.4080810546875,-16.846316422990476,-7.977264034632462,-84,-244,162,8,6,7,9,
662,403,-225,-128,742,785.858154296875,19.2302188873291,60.36140441894531,-16.63724246581482,-9.374059158907691,101,-347,202,8,6,7,7,
663,403,-226,-212,799,856.983642578125,21.195432662963867,46.826820373535156,-15.290650203520876,-14.322485378453452,57,-90,-426,10,8,7,9,
664,403,-234,-98,720,763.38720703125,19.407878875732422,67.27257537841797,-17.850151310092023,-7.375712700786863,4,-6,257,12,7,11,11,
665,416,-244,-76,714,758.3587646484375,19.691741943359375,72.69630432128906,-18.768636591927695,-5.75163307914066,137,2,126,14,8,10,9,
666,416,-222,-113,690,733.589111328125,19.848567962646484,63.020050048828125,-17.615137800704158,-8.860960158176516,108,-314,-320,8,7,8,10,
667,416,-195,-170,781,822.7308349609375,18.32483673095703,48.91437911987305,-13.710462567008053,-11.924872506624785,-65,-200,289,10,10,11,12,
668,416,-210,-114,720,758.614501953125,18.357439041137695,61.50086212158203,-16.07052936866474,-8.642802580004533,-71,-115,853,13,10,12,13,
669,416,-236,-137,765,812.2130126953125,19.629722595214844,59.86092758178711,-16.89173478831193,-9.710787389330294,-38,-359,236,7,8,12,12,
670,413,-220,-109,696,738.035888671875,19.42878532409668,63.64025115966797,-17.342828779423474,-8.493041263056423,-102,-31,-374,13,10,8,9,
671,413,-235,-105,725,769.3341064453125,19.54389190673828,65.92113494873047,-17.785777964581392,-7.844305925443551,74,-292,-560,9,10,8,7,
672,413,-219,-114,741,781.04931640625,18.42551040649414,62.49739074707031,-16.283603888520926,-8.39272964337057,-78,-194,611,9,8,6,10,
673,413,-209,-66,720,752.6201171875,16.92849349975586,72.47126007080078,-16.122775407002628,-5.030938063158326,-95,20,135,8,11,9,7,
674,419,-213,-131,756,796.2825927734375,18.300405502319336,58.40392303466797,-15.515138177723143,-9.469029332602215,29,20,163,9,8,9,10,
675,419,-231,-151,703,755.2291259765625,21.431312561035156,56.82453155517578,-17.8103593562014,-11.53341115371307,39,-476,671,13,10,11,11,
676,419,-229,-114,738,781.0768432617188,19.115318298339844,63.531673431396484,-17.0487332999917,-8.39243173446344,5,-289,152,16,12,14,13,
677,419,-224,-94,731,770.3070678710938,18.380416870117188,67.2316665649414,-16.905444950171148,-7.00923121086987,30,-326,290,8,8,10,12,
678,419,-231,-90,759,798.4622802734375,18.086545944213867,68.71031188964844,-16.816417362146396,-6.471942911878504,98,-29,-424,9,10,12,12,
679,422,-219,-163,769,816.0214233398438,19.543235778808594,53.336238861083984,-15.567610560742457,-11.522319762024248,-20,-179,-617,14,11,11,9,
680,422,-240,-195,763,823.282470703125,22.06000328063965,50.90233612060547,-16.948737963193892,-13.701096677004687,-3,-211,322,13,10,10,10,
681,422,-223,-60,786,819.22216796875,16.370882034301758,74.93762969970703,-15.795782773283422,-4.200115262032517,-61,-53,606,15,9,11,10,
682,422,-213,-81,729,763.7872924804688,17.356826782226562,69.17584228515625,-16.19298080571867,-6.08769204251217,-123,-157,637,23,13,17,16,
683,422,-229,-153,804,849.8623657226562,18.90670394897461,56.24858093261719,-15.631862749539103,-10.37145805657701,-131,-419,367,12,9,7,9,
684,428,-228,-173,795,844.9485473632812,19.797094345092773,52.806034088134766,-15.654682172407785,-11.814642349969944,-58,43,95,9,13,10,11,
685,428,-235,-120,776,819.6347045898438,18.777616500854492,62.945953369140625,-16.661276165814403,-8.41874600209742,190,91,-1151,8,10,7,7,
686,428,-211,-100,763,797.9285888671875,17.013286590576172,64.63874816894531,-15.333365177733977,-7.199495710051075,-21,-159,-516,16,12,12,13,
687,428,-224,-130,735,779.295166015625,19.40873146057129,59.86741638183594,-16.704707588656927,-9.60282736906316,46,-149,614,8,7,8,11,
688,428,-219,-83,732,768.5531616210938,17.73975372314453,69.2402572631836,-16.555919725196294,-6.199756366404919,31,-52,873,7,9,8,11,
689,421,-231,-104,727,769.8740234375,19.209413528442383,65.75857543945312,-17.460551776149643,-7.763652871953515,27,-472,1017,6,11,9,11,
690,421,-231,-54,732,769.4810180664062,17.954431533813477,76.83941650390625,-17.469756927790282,-4.024163447061441,106,-75,311,15,10,12,10,
691,421,-217,-94,718,755.9424438476562,18.228002548217773,66.57537078857422,-16.681957488172557,-7.14311030787403,-130,-164,831,12,12,11,10,
692,421,-219,-173,737,788.0729370117188,20.738677978515625,51.689090728759766,-16.134495500219767,-12.681007479850587,-71,-388,-874,12,8,8,6,
693,421,-230,-75,730,769.0416259765625,18.332897186279297,71.93634033203125,-17.40196651976265,-5.596608062880559,21,-319,-491,9,12,8,7,
694,432,-228,-57,720,757.3856201171875,18.075206756591797,75.960693359375,-17.51981117480679,-4.316097484022403,-120,-158,237,9,8,9,10,
695,432,-213,-102,775,810.1839599609375,16.945215225219727,64.4080810546875,-15.24240158119842,-7.232578856895575,41,-280,777,12,11,15,17,
696,432,-194,-180,807,849.2849731445312,18.153982162475586,47.13983154296875,-13.204506448385306,-12.236240711422225,66,78,1021,11,10,12,10,
697,432,-205,-188,783,830.9380493164062,19.554990768432617,47.47298812866211,-14.282860733862394,-13.076412800844082,-6,-52,-163,12,10,9,10,
698,432,-231,-67,726,764.8045654296875,18.327665328979492,73.82242584228516,-17.580048439706275,-5.025786539472968,43,-132,-639,10,11,13,13,
699,422,-231,-36,723,759.8591918945312,17.916940689086914,81.13912200927734,-17.69823356413145,-2.7155300429710323,37,0,534,12,6,13,10,
700,422,-216,-81,744,778.9435424804688,17.224666595458984,69.4406967163086,-16.099046782099293,-5.968806494518757,53,-108,32,13,8,10,10,
701,422,-196,-194,815,860.3934936523438,18.692407608032227,45.28984451293945,-13.167744291232445,-13.03100092854854,-31,166,-341,22,10,15,16,
702,422,-219,-133,772,813.4088745117188,18.358606338500977,58.725868225097656,-15.618886102448908,-9.410653615406622,-158,-421,278,14,11,11,9,
703,422,-235,-105,742,785.3750610351562,19.128944396972656,65.92113494873047,-17.41076602799858,-7.683111838872189,11,-197,914,15,12,13,11,
704,441,-216,-54,742,774.6844482421875,16.70046043395996,75.960693359375,-16.189982329935322,-3.997089563261163,7,32,756,12,12,12,12,
705,441,-219,-111,746,785.3648681640625,18.21531867980957,63.118408203125,-16.19165724955892,-8.125137776833478,51,18,-429,16,11,8,9,
706,441,-207,-210,807,859.1845092773438,20.06982421875,44.58381652832031,-13.941208025885835,-14.147431200159218,-137,-198,-574,9,13,10,9,
707,441,-215,-159,796,839.7154541015625,18.56700897216797,53.51205062866211,-14.835166664086994,-10.914845299772532,-179,-301,-1127,22,10,15,9,
708,441,-228,-106,685,729.6882934570312,20.154090881347656,65.06230926513672,-18.207676227914174,-8.352770331132382,0,-101,130,12,15,16,10,
709,436,-207,-163,724,770.4505004882812,19.995038986206055,51.777923583984375,-15.585375631434184,-12.214053345337733,-59,-359,259,10,15,13,10,
710,436,-220,-90,729,766.7731323242188,18.056922912597656,67.74766540527344,-16.673452302719227,-6.7406309359891265,0,-31,1111,9,9,9,12,
711,436,-232,-74,732,771.4428100585938,18.39872932434082,72.3059310913086,-17.50176581569592,-5.504512990933632,80,-193,533,8,6,9,10,
712,436,-207,-72,723,755.4879150390625,16.861570358276367,70.8177719116211,-15.902138534058542,-5.4687393405051585,-90,-70,-423,11,10,12,11,
713,440,-237,-153,743,794.7496337890625,20.788286209106445,57.151309967041016,-17.349950141451416,-11.099503011733272,208,-277,-295,11,11,14,16,
714,440,-232,-104,742,784.3494262695312,18.911766052246094,65.85108947753906,-17.204707837063395,-7.6195135756075025,-9,-289,-254,10,5,8,12,
715,440,-230,-104,732,774.2996826171875,19.023962020874023,65.66539001464844,-17.280061792182515,-7.719006904121906,-2,-115,-452,12,8,10,9,
716,440,-211,-79,738,771.6255493164062,16.974763870239258,69.470458984375,-15.869587707181292,-5.876310833367693,-136,-3,485,14,10,8,13,
717,440,-204,-137,752,791.1314697265625,18.093894958496094,56.112274169921875,-14.943032939756877,-9.972163596300392,-135,-195,836,8,12,9,9,
718,444,-213,-128,753,792.9451293945312,18.261568069458008,58.993125915527344,-15.58209596715529,-9.289532349206816,-128,-250,562,10,9,10,10,
719,444,-235,-120,724,770.5848388671875,20.022462844848633,62.945953369140625,-17.755948419222545,-8.958897120432434,58,-418,-47,15,11,13,10,
720,444,-201,-51,726,755.0350952148438,15.93887996673584,75.7596435546875,-15.439029422670187,-3.8730800114097366,113,-1187,-347,10,12,11,12,
721,444,-200,-103,762,794.5143432617188,16.445953369140625,62.74806594848633,-14.579678140151023,-7.448728990834029,-186,-329,-99,13,10,12,9,
722,444,-211,-129,756,795.4231567382812,18.112302780151367,58.555870056152344,-15.382854828135047,-9.333327805493616,-15,19,-94,9,8,7,11,
723,448,-192,-201,764,812.9950561523438,19.99081802368164,43.68408966064453,-13.660234183541148,-14.313892851577164,-263,-44,1147,9,13,16,15,
724,448,-231,-82,723,763.4225463867188,18.726362228393555,70.45301055908203,-17.61291368972685,-6.166093948591774,-49,-47,85,7,16,10,11,
725,448,-197,-212,801,851.6771850585938,19.862707138061523,42.89558792114258,-13.374109204697358,-14.41364861850555,-384,-174,154,8,8,9,11,
726,448,-220,-87,729,766.4267578125,17.977340698242188,68.420166015625,-16.68120703781699,-6.517909560527975,-65,-297,172,8,7,7,6,
727,448,-226,-126,736,780.158935546875,19.367734909057617,60.85585403442383,-16.839071688469303,-9.294294411185101,-29,-170,-160,9,10,9,11,
728,449,-222,-68,705,742.2485961914062,18.226390838623047,72.96668243408203,-17.4030244373435,-5.256437902285025,88,-63,-432,8,7,8,9,
729,449,-241,-71,711,754.084228515625,19.459426879882812,73.58158111572266,-18.63831016988002,-5.4026258964889635,110,-64,-76,12,14,11,15,
730,449,-219,-141,732,776.95947265625,19.58482551574707,57.221500396728516,-16.371723808431227,-10.455782335674844,-55,-188,646,11,14,11,10,
731,449,-213,-87,724,759.68017578125,17.627788543701172,67.77909088134766,-16.282953695010907,-6.576048275399441,-77,-255,701,11,12,8,8,
732,449,-185,-111,753,783.2975463867188,15.985578536987305,59.03267288208008,-13.6612495912147,-8.146728049407693,50,-66,385,11,7,10,14,
733,455,-212,-60,712,745.3106689453125,17.192434310913086,74.19436645507812,-16.525684890619694,-4.6174984235578105,21,-8,323,8,6,10,11,
734,455,-198,-132,729,766.8565673828125,18.076040267944336,56.30628204345703,-14.963100255764743,-9.911759122773564,-179,-253,-312,10,5,8,8,
735,455,-223,-108,747,787.0209350585938,18.34830665588379,64.15545654296875,-16.4600638928952,-7.887377633436622,17,-393,-784,9,10,10,9,
736,455,-228,-104,740,781.281005859375,18.706443786621094,65.47697448730469,-16.967452642081845,-7.649617272026486,5,-226,-539,10,9,9,8,
737,455,-217,-65,750,783.4628295898438,16.80397605895996,73.32183837890625,-16.07977511361609,-4.759015053345322,-90,-67,832,7,8,9,9,
738,451,-218,-132,772,812.9772338867188,18.26673126220703,58.80133056640625,-15.554221794842322,-9.34426385415101,-14,-25,800,11,12,8,9,
739,451,-207,-189,780,828.8365478515625,19.76450538635254,47.598655700683594,-14.462581592152391,-13.181146071659755,22,-12,204,11,14,11,11,
740,451,-252,-124,713,766.3217163085938,21.497814178466797,63.79644775390625,-19.198601925776437,-9.312082879492277,89,-83,359,15,12,14,13,
741,451,-213,-70,726,759.8322143554688,17.159887313842773,71.8042984008789,-16.279605298777685,-5.285903219814536,-155,-81,508,14,12,12,15,
742,451,-217,-80,762,796.32470703125,16.881568908691406,69.75965881347656,-15.813199695244819,-5.765748327917887,-96,-62,-159,13,15,16,15,
743,467,-222,-124,740,782.470458984375,18.961963653564453,60.810569763183594,-16.482159956266013,-9.118242223858552,29,95,-17,11,14,17,16,
744,467,-198,-215,789,841.3976440429688,20.324926376342773,42.63884735107422,-13.610647972651023,-14.80482753712411,-238,13,59,15,16,14,18,
745,467,-200,-73,712,743.1506958007812,16.645837783813477,69.94467163085938,-15.612170765336604,-5.637278675092009,-46,223,849,14,12,18,21,
746,467,-213,-95,720,756.83154296875,17.94624900817871,65.95932006835938,-16.34595638676542,-7.210977140498639,-82,5,545,9,16,14,16,
747,467,-198,-88,721,752.8538818359375,16.724409103393555,66.03414916992188,-15.248100792007822,-6.712565649195824,-181,3,-62,9,14,16,10,
748,457,-220,-97,714,753.3956298828125,18.608524322509766,66.20352935791016,-16.978404705194205,-7.397389388458064,70,-63,-107,10,10,10,12,
749,457,-227,-84,731,770.0298461914062,18.318246841430664,69.69005584716797,-17.145170691031954,-6.262669214828992,-46,-158,-573,7,10,10,11,
750,457,-218,-82,740,775.7886352539062,17.469043731689453,69.38311004638672,-16.32015813230907,-6.067434296509629,-179,-49,540,9,12,11,10,
751,457,-234,-119,742,787.0711669921875,19.48175621032715,63.04107666015625,-17.29579243904078,-8.696094835561132,-13,82,321,9,14,11,12,
752,457,-231,-126,747,791.9886474609375,19.402626037597656,61.386043548583984,-16.958013978539054,-9.154265760361163,-1,-96,-52,11,12,11,10,
753,457,-235,-78,726,767.0625610351562,18.830142974853516,71.6350326538086,-17.840216000260703,-5.836301767826983,-27,-42,301,9,11,15,15,
754,457,-205,-123,735,772.9029541015625,18.015714645385742,59.03267288208008,-15.38084633732978,-9.15699891177221,-99,-145,-159,8,12,13,15,
755,457,-187,-114,748,779.4029541015625,16.317487716674805,58.62886047363281,-13.882245668797175,-8.410585742495286,107,-123,138,10,15,12,11,
756,457,-219,-109,730,769.8973999023438,18.524120330810547,63.5362663269043,-16.526183743077315,-8.139128495656866,10,-350,374,8,10,9,9,
757,457,-214,-56,737,769.4810180664062,16.704620361328125,75.33245086669922,-16.147408091231277,-4.173465949953838,104,113,-318,14,11,10,10,
758,473,-225,-117,771,811.63720703125,18.205270767211914,62.52210235595703,-16.0942030712581,-8.288238500367832,163,-119,-681,11,14,12,11,
759,473,-214,-186,783,832.7550659179688,19.903934478759766,49.00030517578125,-14.890841740367122,-12.906164534625475,-45,-1,743,9,15,10,9,
760,473,-214,-112,724,763.2273559570312,18.44732666015625,62.37056350708008,-16.283379349812307,-8.438356640627296,169,-159,610,12,11,12,11,
761,473,-216,-58,723,756.8018188476562,17.186689376831055,74.96647644042969,-16.583451934999726,-4.395360567176806,229,74,172,13,11,11,12,
762,473,-216,-136,717,761.078857421875,19.59343147277832,57.800662994384766,-16.487589516915726,-10.293681242082107,51,-319,76,10,10,8,9,
763,466,-216,-110,702,742.6708374023438,19.04738998413086,63.00865936279297,-16.908381969010236,-8.517649695715738,-22,-256,207,11,16,15,14,
764,466,-207,-116,714,752.3968505859375,18.381303787231445,60.730804443359375,-15.969211624455154,-8.868891809081482,-71,-345,91,10,11,9,12,
765,466,-219,-66,730,764.9947509765625,17.395063400268555,73.22562408447266,-16.635164236029727,-4.949352072143314,-5,-15,243,11,14,11,9,
766,466,-198,-114,766,799.3472290039062,16.605989456176758,60.0649528503418,-14.341576717883536,-8.199272657126532,5,56,418,10,8,10,8,
767,483,-244,-99,690,738.5370483398438,20.885913848876953,67.91244506835938,-19.292016115228655,-7.703619610608762,-248,-191,128,9,13,11,9,
768,483,-231,-87,702,744.133056640625,19.37080955505371,69.35919189453125,-18.085047086943373,-6.714067185487842,122,-237,423,12,14,11,11,
769,483,-222,-75,689,727.7568359375,18.780902862548828,71.32988739013672,-17.760988504738602,-5.915199068923408,-232,-225,226,12,9,10,9,
770,483,-210,-79,739,772.3095092773438,16.88667106628418,69.38091278076172,-15.778056211187451,-5.871088402369785,-191,90,584,8,7,8,10,
771,483,-224,-141,768,812.3306274414062,19.01386070251465,57.80745315551758,-16.006702332291827,-9.99572227195999,29,-166,785,11,9,9,8,
772,471,-228,-120,701,746.8500366210938,20.178728103637695,62.23798370361328,-17.775140366880816,-9.24606752809848,-145,230,19,8,9,8,7,
773,471,-183,-84,714,741.8497314453125,15.747000694274902,65.3407211303711,-14.281179091028985,-6.501572400721022,-332,205,184,9,11,9,8,
774,471,-207,-111,768,803.1151733398438,17.0034236907959,61.794883728027344,-14.936379889139243,-7.94438434816937,-350,-248,-145,9,10,9,8,
775,471,-216,-133,758,799.3178100585938,18.5006046295166,58.374114990234375,-15.677979083313307,-9.578101362204935,-199,-108,77,10,6,9,9,
776,471,-244,-163,780,833.3696899414062,20.614282608032227,56.25211715698242,-17.024897606443872,-11.27927782761769,-149,143,-169,7,8,7,10,
777,475,-233,-120,753,797.3067016601562,19.188650131225586,62.747108459472656,-16.99173993839778,-8.656291496000705,-101,247,-880,10,11,11,13,
778,475,-220,-67,735,770.1389770507812,17.372373580932617,73.05896759033203,-16.59846763424444,-4.990886602845486,-25,94,1273,13,8,12,12,
779,475,-222,-135,715,760.7456665039062,19.968652725219727,58.69230270385742,-16.966884735894695,-10.221699138781863,-13,-339,908,13,16,16,14,
780,475,-209,-93,729,764.049072265625,17.419523239135742,66.00871276855469,-15.875183600320222,-6.991374971839645,-55,-366,-40,10,13,12,11,
781,475,-186,-93,721,750.3905639648438,16.08669662475586,63.431514739990234,-14.351559913193555,-7.119284115962319,-265,112,-778,11,8,13,10,
782,476,-209,-86,726,760.3637084960938,17.289104461669922,67.63034057617188,-15.954174832364394,-6.494265136259038,-179,-109,-399,88,90,101,116,
783,476,-239,-147,750,800.7683715820312,20.509687423706055,58.40229797363281,-17.365330704241554,-10.577986294449884,-92,-253,300,103,137,127,130,
784,476,-229,-123,790,831.6669921875,18.211200714111328,61.75547409057617,-15.982908169934621,-8.505000793970282,-125,-33,43,171,209,239,233,
785,476,-201,-104,739,772.87646484375,17.02455711364746,62.638916015625,-15.074063938413008,-7.733308185094996,3,-297,533,130,156,174,175,
786,476,-228,-62,735,772.044677734375,17.8188419342041,74.78431701660156,-17.176708533016345,-4.606168185516926,-80,223,476,59,87,98,84,
787,477,-227,-78,756,793.1891479492188,17.6123046875,71.03343200683594,-16.629782812707575,-5.643427209176253,-51,99,-100,53,63,63,58,
788,477,-216,-138,738,781.2451782226562,19.15090560913086,57.42232894897461,-16.050334051345647,-10.174173820021585,162,-50,137,33,49,51,45,
789,477,-235,-121,766,810.3221435546875,19.03580665588379,62.752899169921875,-16.8584417358373,-8.587714372272675,-3,67,-597,38,38,37,35,
790,477,-226,-67,703,741.4674682617188,18.53466033935547,73.48387145996094,-17.74619000985092,-5.18439554643282,-60,-201,-25,28,28,28,30,
791,477,-196,-93,767,797.0909423828125,15.791275024414062,64.61273193359375,-14.234681041767335,-6.700203378689239,-298,-151,304,19,20,23,22,
792,487,-205,-126,765,801.9513549804688,17.458518981933594,58.42011260986328,-14.810709761574097,-9.039582016145607,-45,124,1187,17,17,17,14,
793,487,-228,-153,761,809.0203857421875,19.837974548339844,56.132652282714844,-16.36899626310843,-10.901293154159108,-99,17,1159,14,17,17,17,
794,487,-234,-147,717,768.4100341796875,21.075347900390625,57.85914611816406,-17.729583618743135,-11.02890034235728,-30,-15,-339,12,10,14,14,
795,487,-234,-60,705,745.2388916015625,18.912046432495117,75.61553192138672,-18.30004950289696,-4.6179441725718835,38,201,-508,19,18,17,16,
796,487,-228,-144,736,783.846923828125,20.120498657226562,57.72074890136719,-16.91023564336191,-10.585893331344986,78,-257,-355,16,14,15,17,
797,475,-210,-90,711,746.8071899414062,17.81218910217285,66.7980728149414,-16.331662765957994,-6.921711991265471,-173,-160,-721,29,34,40,42,
798,475,-241,-114,765,810.1246948242188,19.211374282836914,64.68109130859375,-17.3066132167131,-8.089458439986135,-235,82,300,23,26,29,30,
799,475,-231,-86,723,763.862548828125,18.823463439941406,69.57672882080078,-17.602436562018397,-6.464391402248644,-34,-82,1171,15,21,25,20,
800,475,-218,-161,715,764.6371459960938,20.7562313079834,53.54920959472656,-16.564978067407065,-12.155018209869453,6,-77,462,17,15,18,15,
801,475,-231,-85,699,741.071533203125,19.396860122680664,69.79488372802734,-18.162361784488287,-6.586251497287788,8,-288,370,11,8,9,8,
802,476,-201,-88,725,757.47607421875,16.83616828918457,66.3523178100586,-15.38804306263074,-6.671418430775409,-96,-17,179,9,9,9,7,
803,476,-224,-66,736,772.1580200195312,17.601253509521484,73.57962799072266,-16.863707249730776,-4.903324407322997,-16,7,-222,11,11,12,11,
804,476,-225,-129,749,792.6329345703125,19.097389221191406,60.16937255859375,-16.490959318750754,-9.366478020540807,10,-18,-1279,13,10,13,12,
805,476,-215,-161,779,824.0066528320312,19.022159576416016,53.16901779174805,-15.124671535653379,-11.26731831256611,-205,62,1299,12,14,17,19,
806,500,-207,-132,735,774.9180297851562,18.468303680419922,57.47150802612305,-15.49325997758543,-9.807622294674006,-211,280,502,11,12,16,17,
807,500,-243,-69,726,768.6911010742188,19.182878494262695,74.14495086669922,-18.428548121560052,-5.1499713997885115,82,124,71,12,14,13,15,
808,500,-237,-37,742,779.8089599609375,17.91265106201172,81.1238021850586,-17.693236077800343,-2.7195636481160133,-96,-324,832,8,12,13,14,
809,500,-193,-155,808,845.0668334960938,17.030622482299805,51.227943420410156,-13.201967131543643,-10.568879648719914,-493,82,-703,8,6,8,9,
810,500,-238,-128,803,847.2526245117188,18.59773826599121,61.7244758605957,-16.314401729474643,-8.689319170987819,-91,-35,-1376,7,9,12,12,
811,497,-250,-111,730,779.5646362304688,20.539148330688477,66.055419921875,-18.704768574580605,-8.186005095797046,152,-86,232,7,7,7,5,
812,497,-221,-111,734,774.5437622070312,18.61831283569336,63.32789611816406,-16.578531716643248,-8.239437504846393,-41,-130,1017,8,7,11,9,
813,497,-240,-145,778,826.9879150390625,19.81776237487793,58.85744857788086,-16.870517191621605,-10.098158909442473,-33,-69,550,10,8,11,8,
814,497,-209,-162,772,816.032470703125,18.90578269958496,52.21625900268555,-14.839798024374627,-11.450514330397917,-71,-146,1266,8,6,9,11,
815,497,-210,-210,781,835.560302734375,20.817882537841797,44.99601745605469,-14.556131778061449,-14.556131778061449,-173,-189,87,11,10,9,8,
816,498,-201,-67,735,764.9281005859375,16.078083038330078,71.56185150146484,-15.234475641636338,-5.024972687780151,-136,102,-687,11,12,13,14,
817,498,-268,-77,741,791.728515625,20.61954116821289,73.96680450439453,-19.78550510414183,-5.581155354929779,64,110,-414,8,9,10,10,
818,498,-210,-116,710,749.4371337890625,18.66795539855957,61.0810661315918,-16.272756400945138,-8.904201429771193,-75,-235,-1013,8,9,9,11,
819,498,-205,-108,699,736.4034423828125,18.337535858154297,62.2149543762207,-16.16354306197838,-8.433345125238827,-139,-185,-596,9,9,11,8,
820,498,-243,-92,692,739.1731567382812,20.578136444091797,69.2600326538086,-19.192661715738215,-7.149768247936644,-47,-138,963,19,9,11,14,
821,506,-258,-78,714,763.18017578125,20.67933464050293,73.17544555664062,-19.75866738597115,-5.8660956542466085,164,74,10,14,8,10,10,
822,506,-232,-92,720,762.0288696289062,19.11590576171875,68.3658218383789,-17.72510214927144,-6.934254083783424,30,46,596,7,8,10,11,
823,506,-198,-81,708,739.6140747070312,16.8104305267334,67.74766540527344,-15.527875986307444,-6.287448855241088,-104,77,409,8,8,8,12,
824,506,-219,-87,723,760.4334106445312,18.050262451171875,68.33074951171875,-16.737876929821393,-6.56950578279546,-45,-293,-495,13,9,13,13,
825,506,-231,-79,730,769.7415161132812,18.489463806152344,71.11654663085938,-17.463654034455395,-5.890744694201473,-64,12,-532,9,8,9,11,
826,502,-228,-131,691,739.3416137695312,20.831871032714844,60.116451263427734,-17.961778571748603,-10.205817761739315,31,-31,443,12,11,7,11,
827,502,-225,-119,732,774.9902954101562,19.171483993530273,62.12264633178711,-16.877486503752092,-8.83272834325334,52,-65,925,12,9,13,11,
828,502,-216,-93,709,746.984619140625,18.348190307617188,66.70209503173828,-16.807827909734346,-7.15191454962961,-109,-377,775,10,6,10,9,
829,502,-233,-52,731,768.9954223632812,18.08403205871582,77.41610717773438,-17.637440044936053,-3.8773386623707116,-68,-71,261,12,11,11,14,
830,502,-152,-166,770,802.221923828125,16.291929244995117,42.4751091003418,-10.922074854147112,-11.942226795970404,-572,-665,-762,13,10,12,10,
831,511,-219,-98,795,830.4155883789062,16.79139518737793,65.88866424560547,-15.291109775342758,-6.777452720538069,-347,366,-70,8,7,6,6,
832,511,-211,-113,717,755.8961791992188,18.458242416381836,61.825469970703125,-16.20881658508448,-8.597455539707155,-105,-7,-763,9,8,8,9,
833,511,-215,-107,741,778.94482421875,17.955101013183594,63.538204193115234,-16.022476322621834,-7.895417096704522,-184,-180,-201,9,8,12,11,
834,511,-231,-161,717,770.3057861328125,21.4382381439209,55.12097930908203,-17.450450498503102,-12.064219439089541,-5,-128,1232,7,6,8,10,
835,511,-216,-96,690,729.3641357421875,18.90777015686035,66.03414916992188,-17.226412153874854,-7.563302830988365,-136,-196,367,7,8,11,10,
836,512,-230,-129,781,824.319091796875,18.655258178710938,60.709739685058594,-16.20161402134443,-9.003383597622298,-125,43,210,8,7,9,8,
837,512,-241,-120,723,771.49853515625,20.421733856201172,63.52668762207031,-18.202663169388728,-8.948199778076829,0,-152,-513,9,9,9,10,
838,512,-255,-106,699,751.572998046875,21.555469512939453,67.42469787597656,-19.833524969720933,-8.107887924748187,423,201,-465,8,9,13,11,
839,512,-261,-107,705,759.3385009765625,21.805112838745117,67.70494079589844,-20.103692332685846,-8.100629992094193,209,-19,-56,7,8,7,10,
840,512,-234,-126,709,757.1743774414062,20.54633331298828,61.69574737548828,-18.001611780439564,-9.579047824919446,46,-476,-292,9,8,9,11,
841,513,-246,-73,732,775.6732788085938,19.316043853759766,73.46871185302734,-18.490284467794105,-5.400200193092618,62,-155,45,12,9,10,10,
842,513,-219,-84,743,779.1444091796875,17.51820182800293,69.01182556152344,-16.324526799152,-6.189119689925796,-90,-146,723,12,15,14,13,
843,513,-198,-118,765,798.969970703125,16.765438079833984,59.20320129394531,-14.348493953394614,-8.493091482988735,-279,-78,318,12,11,12,12,
844,513,-233,-117,786,828.11474609375,18.34920883178711,63.33323669433594,-16.341508821059765,-8.122197259783693,-331,-37,-181,8,10,10,13,
845,511,-243,-78,743,785.6093139648438,18.954893112182617,72.2008285522461,-18.017896848937617,-5.69805618471492,96,-90,-269,8,6,8,7,
846,511,-221,-62,720,755.70166015625,17.67986488342285,74.32579040527344,-17.00429851035597,-4.706004755089805,64,-236,-172,13,8,13,12,
847,511,-225,-165,777,825.5780029296875,19.750844955444336,53.74243927001953,-15.81524970183169,-11.52877127654535,-93,1,86,10,9,11,13,
848,511,-190,-170,804,843.4547729492188,17.591848373413086,48.17594528198242,-13.01840264537538,-11.6277303243061,-133,94,92,10,10,9,13,
849,511,-231,-102,771,811.2989501953125,18.13249397277832,66.17237854003906,-16.542625166791325,-7.222585557575069,-192,-199,627,10,13,10,8,
850,517,-228,-126,706,752.5264282226562,20.250967025756836,61.0700569152832,-17.63664094186761,-9.63877506099398,-67,-98,721,8,8,7,8,
851,517,-235,-115,683,731.395263671875,20.9577693939209,63.921226501464844,-18.7417856801768,-9.046368161180016,123,-163,417,9,10,10,10,
852,517,-206,-103,701,737.8658447265625,18.185928344726562,63.431514739990234,-16.211482066695453,-8.024224524486012,-34,-114,-989,13,11,10,15,
853,517,-231,-158,814,860.7677001953125,18.971681594848633,55.62487030029297,-15.567003588197453,-10.577018499858557,-103,-128,-769,11,9,12,12,
854,517,-194,-102,728,760.2788696289062,16.75340461730957,62.2623405456543,-14.783630157387472,-7.710124353091174,-250,-153,-112,10,10,11,11,
855,523,-239,-99,698,744.3964233398438,20.333662033081055,67.4960708618164,-18.727373859120007,-7.64261879737446,-109,226,427,8,10,11,11,
856,523,-226,-144,743,789.8486938476562,19.830768585205078,57.492408752441406,-16.626450306112922,-10.504537489813096,-22,-414,232,12,8,10,9,
857,523,-219,-78,707,744.2405395507812,18.199787139892578,70.3926773071289,-17.11315092328585,-6.015921746830058,-115,-145,369,9,7,9,10,
858,523,-208,-51,702,733.9407348632812,16.963369369506836,76.22024536132812,-16.463329975711503,-3.984574404676787,-132,-12,-88,11,8,8,9,
859,523,-220,-97,764,800.9400634765625,17.466934204101562,66.20352935791016,-15.942780066349957,-6.956034669825137,-128,156,166,14,8,7,9,
860,524,-202,-143,783,821.1832885742188,17.538747787475586,54.700828552246094,-14.240140010287869,-10.028554483215554,-514,8,-297,12,8,8,8,
861,524,-228,-137,741,787.2953491210938,19.74437713623047,58.99573516845703,-16.83395391994625,-10.021253331463848,-72,-526,1474,12,9,10,11,
862,524,-214,-116,723,762.8767700195312,18.60508155822754,61.53632736206055,-16.291070410488654,-8.74609410490295,31,-506,-603,9,6,9,9,
863,524,-252,-63,738,782.3790893554688,19.388582229614258,75.960693359375,-18.789639262583567,-4.618664462183905,154,-476,323,7,7,8,12,
864,524,-241,-183,785,841.3055419921875,21.07884407043457,52.78553009033203,-16.64611235721155,-12.56335790098954,177,-124,-64,13,9,10,10,
865,538,-195,-159,769,809.1149291992188,18.11530113220215,50.802913665771484,-13.94580926658107,-11.333006430453185,69,-407,274,13,8,9,10,
866,538,-234,-81,747,786.97265625,18.337705612182617,70.90328979492188,-17.298024868973666,-5.907691305480088,-80,-272,-41,9,8,10,11,
