step,tof,accX,accY,accZ,acc,incl,orient,roll,pitch,gyroX,gyroY,gyroZ,mic0,mic1,mic2,mic3,
0,24,-19,-9,768,768.2877197265625,1.5654561519622803,0.0,-1.417087370578702,-0.6711988304567981,-606,-1942,104,7,7,8,7,
1,24,-19,-8,767,767.2769775390625,1.537021279335022,0.0,-1.4189544241624783,-0.5974042482807858,-558,-1985,126,7,6,7,6,
2,24,-20,-10,770,770.3245849609375,1.6607879400253296,0.0,-1.4877421273510045,-0.743808368224078,-559,-1975,96,5,5,6,5,
3,24,-23,-9,769,769.3965454101562,1.8369505405426025,0.0,-1.7130299517918495,-0.6702314929563843,-556,-1945,105,5,4,5,5,
4,24,-22,-9,768,768.3677368164062,1.7701425552368164,0.0,-1.6407240400395036,-0.6711289057691101,-578,-1975,121,5,5,5,5,
5,25,-21,-8,766,766.32958984375,1.6778024435043335,0.0,-1.5702930809106166,-0.5981428667261877,-582,-1967,117,5,3,4,4,
6,25,15,-161,776,792.6676635742188,11.768147468566895,354.6824035644531,1.0842980621516871,-11.718976622940012,-765,-1386,-3297,15,6,4,7,
7,25,-74,-4,703,706.8953247070312,6.015237331390381,86.9031982421875,-6.0089094008347725,-0.3242125575346343,-287,-2254,402,30,15,14,15,
8,25,-12,31,766,766.720947265625,2.482279062271118,0.0,-0.8967766382242018,2.3172100271338225,-601,-1598,1547,12,7,7,9,
9,25,-4,21,718,718.3181762695312,1.7028017044067383,0.0,-0.319056806045927,1.6752782711212288,-646,-1766,298,16,7,9,11,
10,22,-5,23,731,731.3788452148438,1.8416088819503784,0.0,-0.3917000540322141,1.802103325862962,-543,-1997,-1493,15,11,8,8,
11,22,-18,-20,825,825.4386596679688,1.8654333353042603,0.0,-1.2495244307789952,-1.3883862993575546,-873,-1774,-82,15,11,10,15,
12,22,-29,-72,795,798.7803344726562,5.573980331420898,21.93381690979004,-2.08060062998999,-5.171513009962075,-480,-2133,282,11,8,7,8,
13,22,-28,-3,723,723.5482177734375,2.2279083728790283,0.0,-2.2177962824615363,-0.23756237754784001,-501,-1876,-170,14,10,9,11,
14,22,-57,-36,793,795.8605346679688,4.85678243637085,0.0,-4.10707375556531,-2.592605123600523,-318,-2273,430,16,10,10,8,
15,34,18,21,783,783.4883422851562,2.0204763412475586,0.0,1.3164391947626968,1.5358945387647853,-914,-1995,-327,11,12,10,12,
16,34,-16,-23,790,790.4967041015625,2.0285840034484863,0.0,-1.1597709408966073,-1.6672921802734575,-593,-1627,802,10,10,9,8,
17,34,-13,-74,825,828.4141235351562,5.201102256774902,9.958789825439453,-0.8991586031686198,-5.124908407847596,-404,-1994,-467,15,10,12,13,
18,34,-9,-31,777,777.6702270507812,2.3763670921325684,0.0,-0.6631005040214466,-2.284567174430954,-654,-2614,599,13,11,13,12,
19,34,-32,6,753,753.7035522460938,2.4731879234313965,0.0,-2.4333390650855184,0.45611874941427344,-643,-1923,-383,15,11,11,12,
20,27,-42,-20,725,726.4909057617188,3.66873836517334,0.0,-3.314240135214028,-1.5775289325266075,-465,-1951,-730,10,9,10,11,
21,27,-18,-47,789,790.6035766601562,3.6473045349121094,0.0,-1.3045895489231363,-3.4081433974242903,-523,-2100,723,10,9,12,16,
22,27,-30,-26,807,807.9758911132812,2.8137168884277344,0.0,-2.127871202098344,-1.8440494890482455,-869,-1748,-166,13,11,8,11,
23,27,-30,27,767,768.0612182617188,3.009660243988037,0.0,-2.2385075021339786,2.0145593239211363,-457,-2003,-634,14,10,13,10,
24,24,-48,3,744,745.5527954101562,3.696018934249878,0.0,-3.6913560604720588,0.2305508059632072,-416,-1454,830,11,7,7,8,
25,24,-6,-19,750,750.2646484375,1.5191802978515625,0.0,-0.4582094535323868,-1.4511362727482289,-583,-2022,-157,14,9,8,11,
26,24,-45,8,753,754.3858642578125,3.47092342376709,0.0,-3.4197905573932665,0.6076132420161229,-468,-1898,798,6,8,8,8,
27,24,-30,35,672,673.5792236328125,3.9216747283935547,0.0,-2.5526946957464287,2.9784999945447073,-392,-1788,-823,15,10,12,10,
28,24,-24,-31,790,790.97216796875,2.838463544845581,0.0,-1.7387587315467208,-2.246127258415891,-616,-2097,-268,8,10,8,10,
29,29,-24,-21,756,756.6723022460938,2.412895917892456,0.0,-1.8176023347493286,-1.590339504302101,-599,-2126,716,8,4,6,7,
30,29,-12,-5,773,773.1093139648438,0.9608573317527771,0.0,-0.889365784565422,-0.3705567792868409,-654,-2199,927,4,5,6,7,
31,29,-27,-16,780,780.6311645507812,2.301567316055298,0.0,-1.982107226260088,-1.1744300294477257,-471,-2320,-67,9,9,7,8,
32,29,5,2,768,768.0188598632812,0.3991055190563202,0.0,0.3730128630081567,0.1492042598540772,-866,-2120,341,12,8,8,14,
33,29,-19,-3,821,821.2252807617188,1.3395341634750366,0.0,-1.3257226105148334,-0.20930641079962262,-958,-1749,542,6,6,6,8,
34,27,-9,-35,770,770.8475952148438,2.6845338344573975,0.0,-0.6689697698944751,-2.60238468845799,-772,-2091,-1161,8,6,8,8,
35,27,-37,1,801,801.854736328125,2.643127918243408,0.0,-2.6447394863086107,0.07145408336296659,-606,-2021,-922,8,7,10,7,
36,27,-18,44,750,751.505126953125,3.624347686767578,0.0,-1.3724758358818194,3.356539666098285,-586,-1617,479,12,8,9,8,
37,27,-1,-15,781,781.1446533203125,1.1001152992248535,0.0,-0.07334850655791131,-1.1002949252700305,-656,-2052,-129,10,7,12,9,
38,27,-12,-92,816,821.257568359375,6.484218597412109,7.4263129234313965,-0.8372206788177957,-6.43196429292222,-449,-2515,1055,9,7,9,10,
39,33,0,12,771,771.0933837890625,0.8890631198883057,0.0,0.0,0.8916911075218863,-746,-1778,380,12,7,11,9,
40,33,-15,-8,755,755.1913452148438,1.287268042564392,0.0,-1.1381131348190279,-0.6069651081522165,-582,-2330,-27,13,7,10,8,
41,33,-27,-65,789,792.1331787109375,5.095211029052734,22.552595138549805,-1.9533151236588475,-4.7068066492464045,-561,-2304,-749,15,10,10,11,
42,33,-12,-26,755,755.5428466796875,2.1694812774658203,0.0,-0.9100453573747306,-1.9720713911771608,-487,-2376,-615,6,9,8,8,
43,33,0,13,741,741.114013671875,1.0024611949920654,0.0,0.0,1.005086005254181,-654,-1948,313,6,5,9,9,
44,37,-54,12,780,781.9591064453125,4.054068088531494,0.0,-3.959844728505514,0.8792996496950706,-488,-1792,320,6,7,9,11,
45,37,-22,-16,729,729.5073852539062,2.134434700012207,0.0,-1.7281501836870845,-1.2567467111486952,-640,-2607,912,8,7,9,11,
46,37,-43,-66,750,754.1253051757812,5.9932637214660645,33.080509185791016,-3.268761083699984,-5.020870522129921,-321,-2047,45,9,6,14,12,
47,37,-20,19,768,768.4953002929688,2.0545599460601807,0.0,-1.4912843432844416,1.4167045263619504,-646,-2275,-454,10,6,5,6,
48,37,-33,-9,774,774.7554321289062,2.5278377532958984,0.0,-2.4411998952956337,-0.6655953399232403,-444,-2258,416,6,12,6,10,
49,38,-19,-42,773,774.373291015625,3.410228729248047,0.0,-1.405948622906867,-3.1091001551520345,-502,-2303,-495,7,9,10,7,
50,38,-40,-44,813,815.1717529296875,4.180737495422363,0.0,-2.812599752221158,-3.0941209779474277,-571,-1548,104,11,7,7,11,
51,38,-42,-91,809,815.1846313476562,7.059781551361084,24.770559310913086,-2.9533047377380264,-6.409352837225784,-548,-2320,322,13,9,12,11,
52,38,-9,-3,765,765.058837890625,0.7078596949577332,0.0,-0.6740317156166642,-0.22467263204282875,-557,-2102,680,9,11,10,7,
53,38,-24,43,774,775.56494140625,3.637878656387329,0.0,-1.7733115197853253,3.1783056812240122,-617,-1790,630,8,9,10,9,
54,41,-35,-19,730,731.0855102539062,3.1200735569000244,0.0,-2.744028035080714,-1.4892135072372794,-564,-1980,-43,15,14,14,15,
55,41,-32,-46,767,769.044189453125,4.175976753234863,0.0,-2.3847711292044638,-3.4291656487695668,-557,-1973,266,14,13,9,12,
56,41,-32,-12,776,776.752197265625,2.519170045852661,0.0,-2.36109268729596,-0.8851943970824108,-451,-2154,-671,9,11,12,10,
57,41,-36,24,737,738.2689208984375,3.357218027114868,0.0,-2.795006409605782,1.86292688895258,-351,-1787,-1253,8,9,10,7,
58,41,-19,-63,770,772.8065795898438,4.882007122039795,0.0,-1.4087994960872101,-4.676000847784112,-502,-2085,131,6,8,7,5,
59,45,-21,-27,789,789.7410888671875,2.479785919189453,0.0,-1.523731276483278,-1.9592339527238496,-514,-2159,2296,13,9,10,12,
60,45,-12,-62,800,802.4886474609375,4.510946273803711,0.0,-0.8568033927824273,-4.431068234798494,-625,-1976,96,7,6,8,7,
61,45,-21,3,765,765.2940673828125,1.5857765674591064,0.0,-1.5724183429145533,0.22460357070773918,-434,-2245,-1110,7,7,8,9,
62,45,-33,-18,773,773.9134521484375,2.7814433574676514,0.0,-2.4438575179647732,-1.332729210466384,-526,-2107,-1039,9,9,9,7,
63,45,-12,-26,765,765.5357666015625,2.1411147117614746,0.0,-0.8981651151501007,-1.9463190166552127,-550,-2257,-248,8,10,9,10,
64,46,-4,4,764,764.0209350585938,0.4215843379497528,0.0,-0.2999710510745847,0.2999710510745847,-660,-1824,-230,7,9,9,9,
65,46,-19,23,787,787.5652465820312,2.168286085128784,0.0,-1.3823939761669755,1.6734998708572728,-637,-1924,809,9,9,10,7,
66,46,-24,-46,795,796.6912841796875,3.7314822673797607,0.0,-1.7262731558785969,-3.310030538743293,-637,-1675,891,11,12,11,13,
67,46,9,-51,801,802.6724243164062,3.6967155933380127,0.0,0.6424449300253217,-3.6428988867643146,-566,-2051,788,10,7,9,7,
68,42,-13,18,735,735.3353271484375,1.7277189493179321,0.0,-1.0129854250006909,1.4026622382227634,-584,-1863,534,8,7,6,9,
69,42,-19,24,730,730.6414794921875,2.398545265197754,0.0,-1.4901186747613904,1.8823815984409022,-528,-1957,-356,8,8,9,9,
70,42,-15,-15,765,765.2940673828125,1.5857765674591064,0.0,-1.1230868949176152,-1.1230868949176152,-402,-2192,-1479,7,10,9,9,
71,42,-27,-45,789,790.7433471679688,3.802750587463379,0.0,-1.956749763217196,-3.2623782157445103,-532,-2072,-744,7,8,6,9,
72,42,-33,-18,750,750.94140625,2.8666865825653076,0.0,-2.518664954504515,-1.3735063790774944,-541,-2035,1244,9,7,6,7,
73,47,-15,20,752,752.4154663085938,1.9014772176742554,0.0,-1.1423125861074943,1.5231619503986347,-533,-2012,875,10,9,7,8,
74,47,-15,-12,753,753.2449951171875,1.4587109088897705,0.0,-1.141054409600226,-0.912821802868063,-462,-1994,486,13,8,10,9,
75,47,-24,2,755,755.384033203125,1.8244167566299438,0.0,-1.8207033090028275,0.15169991904796026,-596,-2074,589,7,9,9,11,
76,47,-17,3,755,755.1973266601562,1.307192325592041,0.0,-1.2898755061656066,0.22760646109841176,-555,-1986,-196,10,12,7,9,
77,47,-10,6,780,780.087158203125,0.8539412617683411,0.0,-0.7344993062083437,0.4406918583979906,-567,-2012,-738,7,10,8,6,
78,51,-10,-36,795,795.8775024414062,2.68820858001709,0.0,-0.7199259555563071,-2.5925498294927576,-594,-1888,-135,9,7,8,8,
79,51,-16,-18,771,771.3760375976562,1.7865217924118042,0.0,-1.1885230665348958,-1.3371139266530638,-500,-2153,-422,9,6,6,10,
80,51,-29,36,737,738.4483642578125,3.586575746536255,0.0,-2.250671892988085,2.794326649388779,-521,-2232,985,8,8,7,9,
81,51,-37,38,768,769.8292236328125,3.9480056762695312,0.0,-2.754845971010532,2.8293610483228786,-415,-1733,992,10,9,8,9,
82,51,-26,-13,780,780.54150390625,2.131709337234497,0.0,-1.9088875243093488,-0.9543113262037626,-474,-1964,568,7,7,7,7,
83,49,-43,-33,759,760.9329833984375,4.082257270812988,0.0,-3.239485890450353,-2.485572259394918,-461,-1686,132,6,8,6,5,
84,49,-5,-109,837,844.0823364257812,7.424982070922852,2.6211740970611572,-0.3393988462101516,-7.419570907059491,-555,-1808,-1511,7,8,8,6,
85,49,-13,6,747,747.13720703125,1.0954365730285645,0.0,-0.9969825082646436,0.4601274985678511,-599,-2260,303,7,14,6,6,
86,49,-51,-6,717,718.8365478515625,4.094012260437012,0.0,-4.0684377078956,-0.4782431613729313,-403,-1968,-57,7,9,8,6,
87,49,-38,-18,773,774.1427612304688,3.1109890937805176,0.0,-2.8135830317495802,-1.3323343525953057,-373,-1875,1292,9,10,11,9,
88,56,-10,-109,830,837.1863403320312,7.51019811630249,5.236667156219482,-0.6844012858382935,-7.481034842980575,-521,-1652,-189,6,7,11,10,
89,56,0,-31,805,805.5966796875,2.2027385234832764,0.0,0.0,-2.205331608618036,-583,-2031,769,6,9,7,5,
90,56,-7,-24,759,759.41162109375,1.883929967880249,0.0,-0.5281406403924123,-1.8110438237073931,-587,-2046,-523,5,8,11,14,
91,56,-5,3,757,757.0224609375,0.4386807978153229,0.0,-0.37843128421886957,0.2270577139621722,-561,-2251,504,11,10,12,10,
92,56,-21,0,732,732.3011474609375,1.6406724452972412,0.0,-1.6432806544927732,0.0,-485,-2350,-547,14,10,12,10,
93,62,-34,46,737,739.2164916992188,4.435524940490723,0.0,-2.6362291334257844,3.5677097299887346,-580,-2391,-29,7,10,9,9,
94,62,-3,81,743,747.408203125,6.2234344482421875,177.87884521484375,-0.22997848133659296,6.2216219591770825,-556,-2045,534,11,11,16,14,
95,62,-21,-43,744,745.5374145507812,3.677638530731201,0.0,-1.614098166019792,-3.3064559342549313,-539,-2148,-140,11,9,10,7,
96,62,-27,14,728,728.635009765625,2.389679431915283,0.0,-2.1236150394294326,1.100949376688989,-496,-2132,373,7,9,10,9,
97,62,-29,-18,768,768.7581176757812,2.5421338081359863,0.0,-2.1618919694355947,-1.3416682089399208,-526,-2774,301,10,10,9,10,
98,60,-8,49,771,772.596923828125,3.681941509246826,0.0,-0.5932905191697487,3.6362800419016947,-731,-2012,-274,16,11,12,10,
99,60,-1,-32,804,804.63720703125,2.27774977684021,0.0,-0.07120699280084235,-2.2792242603164903,-580,-1850,371,13,12,10,14,
100,60,-2,-56,801,802.9576416015625,3.999192714691162,0.0,-0.14271198041556682,-3.9991777780703246,-591,-2031,-661,13,17,12,15,
101,60,-12,-45,792,793.3681640625,3.3627710342407227,0.0,-0.8666538788003756,-3.25157319346844,-636,-1752,617,8,12,10,11,
102,60,-21,16,771,771.451904296875,1.958572506904602,0.0,-1.5598640061193063,1.1884062163415605,-579,-2013,461,15,13,12,12,
103,65,-20,28,762,762.7764892578125,2.5829453468322754,0.0,-1.502467525717562,2.1036860976367215,-474,-1914,-2,13,13,13,11,
104,65,-15,-39,758,759.1508178710938,3.1527023315429688,0.0,-1.1321763455461011,-2.944763211226403,-524,-2065,166,10,12,14,15,
105,65,-11,-2,772,772.0809326171875,0.8270841240882874,0.0,-0.816332658994437,-0.14841926425292135,-620,-2063,-267,13,13,13,12,
106,65,-19,3,777,777.238037109375,1.4155086278915405,0.0,-1.4007655071601326,0.2211520182333559,-611,-2049,-281,11,12,10,10,
107,70,-45,12,682,683.5883178710938,3.9040181636810303,0.0,-3.774458677161039,1.0058461281156792,-441,-2132,155,9,7,9,7,
108,70,-12,-21,752,752.3888549804688,1.8395802974700928,0.0,-0.9138605599685085,-1.5993958813471778,-629,-2082,504,7,12,10,10,
109,70,-14,0,750,750.1306762695312,1.066776156425476,0.0,-1.0693970206331174,0.0,-506,-2134,431,10,9,11,9,
110,70,-29,-20,746,746.831298828125,2.701056480407715,0.0,-2.225396065943325,-1.5345535089539057,-602,-1999,-82,8,9,10,9,
111,70,-27,23,762,762.8250122070312,2.662410020828247,0.0,-2.0283934204947482,1.7277916363630292,-491,-2080,-151,7,8,7,6,
112,75,-7,-36,778,778.8638916015625,2.6963024139404297,0.0,-0.5149498491232123,-2.6492217259416413,-557,-2323,262,7,6,7,7,
113,75,-6,18,739,739.2435302734375,1.468123197555542,0.0,-0.46504086488835195,1.3952451698463846,-477,-2242,118,6,9,8,7,
114,75,-21,10,771,771.3507690429688,1.7253625392913818,0.0,-1.5600685358212543,0.7428187970385388,-498,-1951,329,6,10,7,12,
115,75,-33,40,720,721.8649291992188,4.116887092590332,0.0,-2.6201852909218126,3.176502279488922,-478,-2233,126,6,10,7,8,
116,75,-7,-21,786,786.3116455078125,1.6105709075927734,0.0,-0.5100722568293578,-1.5303785217011507,-675,-1721,-184,8,7,7,7,
117,74,-39,-51,768,770.6788940429688,4.776149749755859,0.0,-2.9006764732098116,-3.794344976801641,-481,-2042,-105,8,8,7,9,
118,74,6,-44,801,802.2300415039062,3.1706526279449463,0.0,0.42852782234006676,-3.1440857540844753,-728,-2519,402,6,11,9,7,
119,74,-6,-15,767,767.1701049804688,1.2040328979492188,0.0,-0.44811205598490544,-1.1203401102424286,-593,-2195,300,8,12,7,10,
120,74,0,33,808,808.673583984375,2.336163282394409,0.0,0.0,2.3387506061988352,-766,-1652,-105,7,10,8,8,
121,74,-23,-74,779,782.8447875976562,5.678389549255371,17.261009216308594,-1.6835936915415668,-5.42409848861319,-544,-1988,56,7,9,8,7,
122,76,0,-45,778,779.3003540039062,3.307779550552368,0.0,0.0,-3.3103349083680107,-569,-2016,361,8,9,8,7,
123,76,-3,27,747,747.4938354492188,2.080167055130005,0.0,-0.2299521374906503,2.0700139742391865,-512,-1939,188,10,11,12,9,
124,76,-7,6,745,745.0570678710938,0.7063774466514587,0.0,-0.5383163075838354,0.4614121768725126,-473,-1919,364,10,10,10,11,
125,76,-6,-10,763,763.089111328125,0.8730253577232361,0.0,-0.45050861278681914,-0.7508614433146886,-692,-2153,-119,11,13,10,12,
126,76,-4,-32,774,774.6715698242188,2.383286237716675,0.0,-0.2958468507604797,-2.3674378892157413,-477,-2107,-132,8,6,10,11,
127,82,1,-1,709,709.0014038085938,0.11163486540317535,0.0,0.08081196689656224,-0.08081196689656224,-500,-1933,414,7,9,10,10,
128,82,3,22,751,751.3281860351562,1.6908758878707886,0.0,0.22877858843998083,1.6779450284802,-653,-1953,467,8,6,9,6,
129,82,-25,-12,732,732.5250854492188,2.16694712638855,0.0,-1.9558001879605014,-0.9386437731890344,-663,-1990,449,7,6,8,10,
130,82,-17,8,738,738.2391357421875,1.455732822418213,0.0,-1.3195106147535733,0.6209034370799257,-495,-2168,-174,9,14,11,9,
131,82,6,9,741,741.0789184570312,0.8336754441261292,0.0,0.4638890851056144,0.6958431309624072,-705,-2146,-134,7,7,8,9,
132,85,-11,45,772,773.388671875,3.431443929672241,0.0,-0.8149522603033029,3.335667185144645,-701,-1828,321,9,5,8,11,
133,85,-8,-28,797,797.5317993164062,2.089920997619629,0.0,-0.5747406099202871,-2.0119718678803737,-584,-1887,185,7,8,10,13,
134,85,-23,15,765,765.49267578125,2.053105115890503,0.0,-1.721768698205259,1.1227954967354539,-562,-1642,1117,8,12,10,8,
135,85,-43,13,738,739.365966796875,3.480752468109131,0.0,-3.334085797955332,1.0074625731583633,-413,-2088,292,7,14,10,11,
136,85,-34,41,729,730.9432373046875,4.176290988922119,0.0,-2.666088978526359,3.215517247914251,-627,-1998,433,11,13,10,10,
137,85,1,-21,818,818.2701416015625,1.4696463346481323,0.0,0.07002063489322355,-1.4705944278487724,-634,-1948,-268,10,11,11,9,
138,85,-43,-17,779,780.37109375,3.3943207263946533,0.0,-3.1587113747331808,-1.2482591308942859,-481,-1842,-911,8,9,8,8,
139,85,-38,-68,785,788.8555297851562,5.664551258087158,29.19303321838379,-2.7610665466040087,-4.945080914706281,-540,-2002,358,4,9,7,7,
140,85,-35,-2,761,761.8070678710938,2.6350133419036865,0.0,-2.6332893652595737,-0.15042088259513442,-518,-1973,514,11,10,8,8,
141,85,0,-26,776,776.4354248046875,1.9163880348205566,0.0,0.0,-1.9189860859527823,-661,-1923,666,9,8,9,9,
142,90,-14,-6,790,790.1468505859375,1.1019253730773926,0.0,-1.0152326973558792,-0.43508114118489993,-567,-2085,385,5,7,6,5,
143,90,-26,-33,784,785.1248168945312,3.064788341522217,0.0,-1.8977398525425786,-2.408939077395936,-591,-2079,-148,6,5,6,5,
144,90,-28,-17,739,739.7256469726562,2.535433053970337,0.0,-2.169270757556567,-1.316858546088608,-560,-1869,-573,11,9,7,9,
145,90,-21,16,731,731.4765625,2.0657958984375,0.0,-1.6451336004096684,1.253362861043032,-364,-1947,-564,10,14,11,12,
146,92,-21,-6,730,730.32666015625,1.7110732793807983,0.0,-1.6477246903113683,-0.4707188891492538,-491,-1817,515,11,11,12,12,
147,92,-6,0,784,784.02294921875,0.43583935499191284,0.0,-0.4384795481653794,0.0,-604,-2172,450,9,9,9,7,
148,92,-14,21,769,769.4140625,1.8771952390670776,0.0,-1.0425923062969282,1.5639963756705817,-392,-2037,20,6,8,7,9,
149,92,-33,25,788,789.0867919921875,3.004913330078125,0.0,-2.3968367824562584,1.8155597091520077,-244,-1943,17,7,6,7,6,
150,92,-6,-34,768,768.775634765625,2.571415662765503,0.0,-0.447176191373251,-2.534799475678996,-739,-2161,837,7,8,8,6,
151,95,-10,-19,763,763.3020629882812,1.609279990196228,0.0,-0.7506519810688813,-1.426345283965877,-668,-2276,112,8,9,8,6,
152,95,-6,3,727,727.0309448242188,0.5260278582572937,0.0,-0.47285274474287015,0.23642435950784502,-530,-2213,-833,6,10,9,9,
153,95,-29,37,759,760.4544677734375,3.5416862964630127,0.0,-2.1855096803145586,2.7888338496014122,-615,-1827,-847,9,8,8,7,
154,95,3,-21,780,780.2883911132812,1.55524480342865,0.0,0.22028747345697605,-1.5421947262135727,-849,-1829,45,6,13,8,10,
155,95,-26,-33,822,823.0728759765625,2.9232354164123535,0.0,-1.8102140501792234,-2.2978130558999763,-587,-1990,1236,9,11,10,9,
156,99,-15,1,751,751.1504516601562,1.1441576480865479,0.0,-1.1442365803553325,0.07627739071884694,-484,-1913,1560,7,8,9,9,
157,99,10,33,744,744.7986450195312,2.6509897708892822,0.0,0.7693019126653305,2.539451376531533,-724,-1677,754,9,11,9,11,
158,99,0,-1,735,735.0006713867188,0.07529719173908234,0.0,0.0,-0.0779533934150842,-536,-1976,-725,8,13,8,8,
159,99,-11,3,761,761.0853881835938,0.855744481086731,0.0,-0.8281271871276569,0.22584559050800174,-482,-2173,-1288,9,12,8,9,
160,99,3,5,726,726.0234375,0.4575258493423462,0.0,0.236752457276701,0.39458942507742606,-665,-1833,-532,6,10,7,8,
161,102,-3,27,783,783.4711303710938,1.9844801425933838,0.0,-0.21939258973947798,1.9749195267407482,-632,-2039,772,6,10,8,10,
162,102,-3,-45,783,784.2977905273438,3.293968439102173,0.0,-0.2191613480956475,-3.2892185891177754,-595,-2165,1163,10,11,11,11,
163,102,-6,-51,817,818.6122436523438,3.5939865112304688,0.0,-0.41995188713439524,-3.571872245913299,-626,-1877,939,9,12,11,8,
164,102,-2,17,756,756.1937866210938,1.2944468259811401,0.0,-0.15153747485292574,1.2881755565229864,-483,-1677,542,10,17,12,9,
165,102,-21,-5,775,775.3005981445312,1.5929075479507446,0.0,-1.5521187067554465,-0.36950943708848366,-557,-1919,258,11,10,13,11,
166,107,-18,-23,735,735.5800170898438,2.2729344367980957,0.0,-1.4021954448084104,-1.7918073860058759,-540,-2151,-58,13,12,14,14,
167,107,-16,13,718,718.2958984375,1.6420453786849976,0.0,-1.2763657689868835,1.0370180341954753,-484,-2068,-1352,13,20,14,15,
168,107,11,-12,719,719.1842651367188,1.2943921089172363,0.0,0.8763792338085133,-0.9560571602073094,-596,-2165,-779,9,20,12,11,
169,107,-15,18,787,787.3486938476562,1.702712893486023,0.0,-1.0916239184292043,1.309983580054667,-576,-1897,1213,13,13,12,12,
170,107,-18,-15,796,796.3447875976562,1.6834443807601929,0.0,-1.2951825678777944,-1.0792907157943168,-432,-1993,1387,11,11,11,13,
171,109,-13,-33,783,783.8029174804688,2.5910325050354004,0.0,-0.9503400398281737,-2.4130042726488106,-485,-1921,844,14,15,17,13,
172,109,-54,-16,724,726.1873168945312,4.445599555969238,0.0,-4.264506661470119,-1.2624933743333657,-521,-1673,-862,10,12,14,12,
173,109,-12,0,753,753.0955810546875,0.9103739261627197,0.0,-0.913002866815424,0.0,-621,-1794,-549,11,12,14,13,
174,109,-24,-21,739,739.687744140625,2.4683997631073,0.0,-1.8593522125555912,-1.6268662372255331,-357,-2174,295,10,12,12,12,
175,109,-8,-7,733,733.0770874023438,0.8282248377799988,0.0,-0.6252757714618371,-0.5471137546477485,-717,-2191,-583,8,10,12,11,
176,108,8,24,759,759.4215087890625,1.9064157009124756,0.0,0.6035840702516666,1.8110202638884845,-586,-2039,-299,9,7,9,13,
177,108,-27,39,779,780.4428100585938,3.481947660446167,0.0,-1.9825857277125678,2.8643564677037947,-575,-1698,1152,13,17,15,15,
178,108,-26,-26,781,781.8650512695312,2.6929214000701904,0.0,-1.9056548248902205,-1.9056548248902205,-423,-1694,541,10,14,14,14,
179,108,6,-53,789,790.8008422851562,3.8649208545684814,0.0,0.43472129698737316,-3.8428818397833595,-577,-1848,258,7,9,10,7,
180,108,-43,11,776,777.268310546875,3.2710046768188477,0.0,-3.1713334805064024,0.8108842467938583,-433,-1780,-976,9,14,9,7,
181,115,-8,-26,742,742.4984741210938,2.097024440765381,0.0,-0.6173414685998513,-2.006731198584386,-551,-2353,-782,8,11,8,6,
182,115,-3,-33,780,780.7035522460938,2.429999351501465,0.0,-0.22017034022039048,-2.4225895609770314,-924,-1876,-94,5,13,7,7,
183,115,-3,-41,799,800.056884765625,2.942777156829834,0.0,-0.21484440313046227,-2.93748665255536,-609,-2010,929,7,11,9,10,
184,115,11,-2,771,771.0810546875,0.8281633257865906,0.0,0.8173913055372093,-0.14861172652754065,-535,-1697,1146,6,7,10,13,
185,115,-57,22,761,763.44873046875,4.587733268737793,0.0,-4.281755907288409,1.6512983502424396,-439,-2255,545,5,5,7,7,
186,118,-5,-6,744,744.041015625,0.598812460899353,0.0,-0.385033964939186,-0.46204228812019815,-653,-1796,-32,10,9,12,12,
187,118,-1,-24,715,715.4033813476562,1.9215586185455322,0.0,-0.08008879962776615,-1.922491286754198,-573,-2068,-581,11,10,12,11,
188,118,-21,14,787,787.4046020507812,1.8342252969741821,0.0,-1.528253780605134,1.0187687305598843,-788,-1744,-386,8,6,8,10,
189,118,-49,-6,781,782.55859375,3.614231824874878,0.0,-3.5899303753111025,-0.439300053405665,-648,-2027,235,7,8,8,11,
190,118,-14,-3,760,760.1348266601562,1.0766597986221313,0.0,-1.055320990703094,-0.2261280130852461,-545,-2111,211,7,8,6,8,
191,121,-48,-29,708,710.2175903320312,4.5263895988464355,0.0,-3.875284882702142,-2.340183827579986,-503,-1950,475,9,11,11,10,
192,121,0,-12,822,822.0875854492188,0.8337437510490417,0.0,0.0,-0.8363753254224154,-604,-1803,636,8,7,11,13,
193,121,3,12,804,804.0951538085938,0.8787833452224731,0.0,0.21376542150844183,0.8550914444852649,-754,-1865,1085,8,7,8,9,
194,121,-27,49,722,724.1643676757812,4.4283599853515625,0.0,-2.136731387914498,3.879837446500878,-588,-2028,-395,9,7,9,9,
195,121,-9,38,763,763.9987182617188,2.927340507507324,0.0,-0.6749670501916579,2.8509712903306617,-679,-1821,-604,7,7,12,10,
196,126,-14,-23,828,828.4376831054688,1.8599485158920288,0.0,-0.9683034842487482,-1.5909129931419066,-726,-1495,-241,8,8,7,7,
197,126,-22,-54,819,821.0730590820312,4.069825649261475,0.0,-1.5353785882457422,-3.770927290329776,-874,-1477,-862,9,9,10,9,
198,126,-60,10,753,755.4528198242188,4.615826606750488,0.0,-4.555375335105901,0.7584517459866547,-421,-1505,312,7,8,8,11,
199,126,-30,32,732,733.3130493164062,3.4266624450683594,0.0,-2.3446374751838532,2.5010428844102646,-575,-1787,989,8,10,7,11,
200,129,-33,-54,734,736.72314453125,4.92531156539917,0.0,-2.567305734780296,-4.203409682742977,-283,-2251,127,6,9,13,11,
201,129,-30,-11,789,789.646728515625,2.316519021987915,0.0,-2.177286406008648,-0.7981720370468411,-643,-1961,-359,11,6,9,7,
202,129,-49,21,740,741.9177856445312,4.118000507354736,0.0,-3.7868592620858528,1.6219749888789572,-553,-1708,-291,5,5,7,8,
203,129,-38,-18,762,763.1592407226562,3.155851125717163,0.0,-2.854109926633788,-1.351513086592972,-490,-2265,206,7,7,8,8,
204,129,-18,-90,732,737.7316284179688,7.1443281173706055,11.304950714111328,-1.3981050889670286,-7.007287075659324,-552,-2169,-462,11,8,10,9,
205,134,0,-32,756,756.6769409179688,2.4211881160736084,0.0,0.0,-2.4237713441135558,-628,-2250,1456,12,8,8,14,
206,134,0,-15,766,766.1468505859375,1.1192131042480469,0.0,0.0,-1.1218366364545755,-751,-2171,253,12,10,8,10,
207,134,-39,32,774,775.642333984375,3.726619243621826,0.0,-2.882099106186064,2.3644731891464765,-602,-1828,39,8,8,9,10,
208,134,-27,-23,769,769.8175048828125,2.6381826400756836,0.0,-2.009961279274959,-1.712092859233854,-576,-1830,149,8,6,8,11,
209,134,-9,-32,718,718.7691040039062,2.6481754779815674,0.0,-0.7174425011315549,-2.5516834241221518,-609,-2051,-1146,6,10,11,13,
210,136,-5,-7,769,769.048095703125,0.6382716298103333,0.0,-0.3725136451605028,-0.5215226305424585,-657,-2090,354,10,9,12,14,
211,136,-20,12,759,759.3582763671875,1.7575199604034424,0.0,-1.5092323934621776,0.9054724110790557,-639,-2144,941,7,8,10,10,
212,136,9,33,767,767.7623291015625,2.5508971214294434,0.0,0.671658147381019,2.4634490521812062,-788,-1933,-134,7,8,9,8,
213,136,-28,-36,787,788.3203735351562,3.3140499591827393,0.0,-2.0354914129669517,-2.617420212181004,-551,-1887,133,8,5,7,4,
214,136,-18,-67,807,809.9765625,4.91098165512085,0.0,-1.2733812438616627,-4.744839273657418,-582,-2015,-79,19,9,11,9,
215,137,-27,18,762,762.6906127929688,2.4359006881713867,0.0,-2.0287509587470547,1.3523436001338722,-607,-1823,-22,6,6,9,11,
216,137,-12,-58,745,747.3506469726562,4.543001174926758,0.0,-0.9200218100047107,-4.4510566999444965,-488,-2007,157,8,8,9,10,
217,137,-20,6,772,772.2823486328125,1.5467135906219482,0.0,-1.4839698772950627,0.4451456694030074,-706,-1732,232,7,8,10,10,
218,137,-6,-25,803,803.4114990234375,1.8312335014343262,0.0,-0.42789763768879024,-1.7831781005925242,-683,-2154,129,7,5,7,7,
219,137,-19,-32,764,764.9058837890625,2.7861835956573486,0.0,-1.42335393564622,-2.3976808642896565,-591,-1973,-1143,8,5,9,8,
220,144,-73,27,776,779.8935546875,5.7251505851745605,110.29551696777344,-5.370891345122282,1.9839825230418267,-374,-1508,202,10,12,13,10,
221,144,-66,-27,738,741.4371337890625,5.516571044921875,67.74766540527344,-5.107018945865103,-2.0869310763685043,68,-1785,-210,12,11,11,14,
222,144,-3,19,756,756.2446899414062,1.4548858404159546,0.0,-0.22729124094956954,1.4396589017402224,-458,-1869,646,11,10,13,13,
223,144,-9,4,720,720.0673828125,0.7810677886009216,0.0,-0.7161488950262468,0.3182817471726985,-662,-2163,35,9,10,14,13,
224,144,-24,2,794,794.3651733398438,1.734726905822754,0.0,-1.7313297122112818,0.14425567300317338,-591,-2048,30,11,12,12,11,
225,143,-7,1,738,738.0338745117188,0.5463141202926636,0.0,-0.543439107553103,0.07763301796769292,-617,-1922,393,13,12,12,12,
226,143,-9,-4,704,704.0689086914062,0.7988746166229248,0.0,-0.7324227333811801,-0.3255141004486595,-744,-2043,-288,14,11,18,14,
227,143,-48,-51,780,783.137939453125,5.12829065322876,43.2602653503418,-3.513968880863571,-3.7338941738937117,-474,-2064,-146,11,9,11,10,
228,143,-24,23,768,768.7190551757812,2.4758174419403076,0.0,-1.7891090037217352,1.7145400516066227,-629,-2001,395,11,10,10,12,
229,143,13,-28,854,854.5578002929688,2.0676538944244385,0.0,0.8716483339571374,-1.877660066207273,-939,-1775,236,11,7,13,11,
230,149,-13,-89,846,850.7678833007812,6.06626033782959,8.305206298828125,-0.8755315430153462,-6.004776774062485,-814,-2007,-38,14,8,9,11,
231,149,-12,13,823,823.1901245117188,1.2288613319396973,0.0,-0.8352550368483016,0.9048651879881069,-633,-1479,-126,6,7,13,11,
232,149,-34,-15,795,795.8681030273438,2.6737349033355713,0.0,-2.4484579694431923,-1.0799372468988855,-321,-1946,-71,7,9,8,8,
233,149,-44,25,738,739.7330322265625,3.920219659805298,0.0,-3.410018229891941,1.9367355308561012,-407,-2095,-63,9,8,12,12,
234,149,3,-5,778,778.0218505859375,0.42676860094070435,0.0,0.22092922500078752,-0.3682169971735471,-858,-1849,-404,11,8,12,12,
235,154,-27,-7,825,825.4713745117188,1.9337918758392334,0.0,-1.874398140502171,-0.48587422058325813,-644,-1519,-432,10,8,8,9,
236,154,-16,-12,735,735.2720336914062,1.5560712814331055,0.0,-1.2468919857434717,-0.9351366916455534,-700,-2466,144,6,8,8,7,
237,154,-16,14,750,750.30126953125,1.6211239099502563,0.0,-1.2219117835243067,1.0691538129040548,-515,-1947,1134,14,9,10,10,
238,154,-18,-26,804,804.6216430664062,2.24979305267334,0.0,-1.2818572201334786,-1.8517394260948696,-538,-1938,317,7,7,9,10,
239,156,-5,-52,840,841.6228637695312,3.556105375289917,0.0,-0.3403906953678873,-3.5422985992325633,-658,-2292,71,6,5,7,5,
240,156,-28,-27,824,824.9175415039062,2.7000932693481445,0.0,-1.94515196861814,-1.8756569682434587,-591,-1971,-595,9,7,8,6,
241,156,-48,-6,760,761.5379028320312,3.6393814086914062,0.0,-3.6137684347614414,-0.45142628603699175,-458,-1948,-829,7,4,8,7,
242,156,-38,-27,757,758.4338989257812,3.5212292671203613,0.0,-2.8719068978808466,-2.040142148268999,-284,-1940,307,7,9,9,9,
243,156,-31,-42,745,746.8265991210938,4.005578994750977,0.0,-2.3789719977809605,-3.2238982288304796,-492,-2199,-220,8,8,7,8,
244,157,-27,-9,741,741.54638671875,2.196959972381592,0.0,-2.0866235087720413,-0.695404503116595,-535,-2131,662,8,6,10,12,
245,157,0,9,761,761.05322265625,0.6749440431594849,0.0,0.0,0.677579469440286,-549,-2308,577,7,6,8,11,
246,157,-3,-22,768,768.3209228515625,1.6534043550491333,0.0,-0.22371873014529264,-1.6408241225645805,-656,-1814,293,7,7,7,6,
247,157,-26,-63,813,815.8516845703125,4.789421081542969,0.0,-1.8262418702106693,-4.4287841571905275,-525,-1809,-350,7,7,7,6,
248,157,-12,-32,759,759.76904296875,2.575575351715088,0.0,-0.9049828350230188,-2.4139012583749953,-593,-2079,-229,6,11,8,5,
249,163,-12,15,750,750.2459716796875,1.4645576477050781,0.0,-0.9164710117777067,1.1456162477642255,-547,-1873,-48,5,6,8,9,
250,163,2,3,741,741.0087890625,0.2761380076408386,0.0,0.15464283623020755,0.23196460638953337,-790,-2442,281,5,7,7,10,
251,163,15,-57,827,829.0977172851562,4.07406759262085,0.0,1.03664933839968,-3.94216216378145,-833,-2067,469,9,8,9,9,
252,163,-17,-66,815,817.8447265625,4.777713775634766,0.0,-1.1910554327664993,-4.628797989132406,-588,-1869,1341,8,9,11,10,
253,163,24,32,802,802.9968872070312,2.8527047634124756,0.0,1.7127133884992358,2.283882544670983,-692,-1990,-517,10,9,10,9,
254,164,-21,7,774,774.3164672851562,1.6355701684951782,0.0,-1.5540918487756774,0.5179741538040579,-527,-1637,218,5,7,5,9,
255,164,-32,-51,777,779.3292236328125,4.42833948135376,0.0,-2.3532809278884623,-3.7521684452460593,-412,-2315,-1250,6,8,7,7,
256,164,-38,-150,867,880.7003173828125,10.117002487182617,14.210967063903809,-2.4729363405575935,-9.806367389949518,-392,-2419,-994,8,7,8,7,
257,164,-37,21,777,778.1638793945312,3.1315009593963623,0.0,-2.7253173089244243,1.5464062490197887,-565,-696,643,12,12,9,13,
258,164,-6,-14,768,768.1510009765625,1.133563756942749,0.0,-0.44753982075746973,-1.0443067833330215,-667,-2421,161,13,9,12,15,
259,173,-21,-2,747,747.2977905273438,1.6149765253067017,0.0,-1.6102948339751495,-0.1533414068878067,-541,-2359,1033,10,7,9,11,
260,173,-31,-19,747,747.8843383789062,2.784032106399536,0.0,-2.375605497335047,-1.4557557561495464,-647,-2124,940,9,7,11,9,
261,173,0,7,735,735.0333251953125,0.5430150032043457,0.0,0.0,0.5456575934157205,-595,-2081,-497,8,7,6,6,
262,173,-14,43,738,739.3842163085938,3.5039210319519043,0.0,-1.0849418316697168,3.3340033715929294,-626,-1308,-206,6,6,7,8,
263,173,-1,-57,864,865.8787231445312,3.772491931915283,0.0,-0.06617068800972069,-3.7744578144851553,-1002,-2098,-1199,6,7,9,7,
264,173,-54,-49,750,753.5363159179688,5.550565719604492,47.77526092529297,-4.109458656464451,-3.7283876428257283,-123,-1743,697,9,10,10,12,
265,173,-25,-38,720,721.4353637695312,3.612326145172119,0.0,-1.985876174568679,-3.019324695958783,-598,-2628,1241,13,6,8,10,
266,173,-30,38,747,748.5673217773438,3.7057454586029053,0.0,-2.2968326892912057,2.909792904181973,-287,-1824,-89,9,9,8,8,
267,173,-21,28,773,773.7919921875,2.5898985862731934,0.0,-1.5551455409463373,2.073725518239332,-444,-1512,989,6,9,7,9,
268,173,-11,-93,813,818.3758544921875,6.56839656829834,6.74047327041626,-0.7701504985656713,-6.52517238678436,-610,-2306,-898,9,9,10,5,
269,177,-24,3,801,801.3651123046875,1.7269539833068848,0.0,-1.7162019897929848,0.21449367233004496,-610,-925,-726,9,7,8,9,
270,177,-26,-102,817,823.7529907226562,7.33905553817749,14.295391082763672,-1.8087190280665606,-7.112820930230698,-516,-2628,-247,9,7,6,8,
271,177,-21,-4,742,742.307861328125,1.6476668119430542,0.0,-1.621122370588045,-0.30874550981576543,-551,-1788,-44,9,6,8,8,
272,177,-6,-11,762,762.10302734375,0.9394304156303406,0.0,-0.45109154985065536,-0.8270213488551363,-861,-2513,511,9,8,8,9,
273,177,0,-14,816,816.1201171875,0.9802898168563843,0.0,0.0,-0.9829193891732693,-703,-1504,546,17,9,7,11,
274,181,-18,10,719,719.2947998046875,1.6378241777420044,0.0,-1.4339485162380858,0.7965805657685555,-644,-1797,990,7,5,8,8,
275,181,-32,-42,750,751.8563842773438,4.024560928344727,0.0,-2.4393208787616127,-3.202308515868582,-384,-2223,-442,11,8,9,10,
276,181,-42,16,727,728.387939453125,3.535074472427368,0.0,-3.30559869073973,1.2586784509979472,-222,-1654,-1002,8,11,8,14,
277,181,-48,-14,738,739.6918334960938,3.8733632564544678,0.0,-3.720645734921215,-1.0844905700364962,-154,-1707,-686,11,14,11,11,
278,184,2,13,742,742.1165771484375,1.0129117965698242,0.0,0.15441199231066047,1.0037280737852847,-673,-2369,-4,8,6,9,10,
279,184,-8,20,743,743.3121948242188,1.6580147743225098,0.0,-0.6166656442920244,1.5418204222798604,-568,-1953,1640,9,7,6,6,
280,184,-8,17,740,740.2384643554688,1.4517916440963745,0.0,-0.619226336830478,1.3159460427373797,-632,-1830,-98,8,5,6,4,
281,184,-28,24,757,757.8977661132812,2.786456823348999,0.0,-2.1172341417604095,1.8146625047221407,-581,-1782,648,7,8,7,7,
282,184,-16,9,747,747.2255249023438,1.4051469564437866,0.0,-1.2269421975598036,0.6901189270341211,-632,-2150,515,8,7,7,6,
283,186,-18,47,793,794.5955200195312,3.6289446353912354,0.0,-1.2980343638510732,3.3910013298680624,-448,-1331,-1220,14,9,7,14,
284,186,-4,-103,825,831.4144287109375,7.119335651397705,2.2187137603759766,-0.27565554116542684,-7.11638578024163,-606,-2193,-326,10,7,9,9,
285,186,-33,2,802,802.68115234375,2.357959032058716,0.0,-2.3562205281441204,0.14276114511579588,-660,-1798,-317,8,6,7,6,
286,186,-29,-58,779,781.6943359375,4.7559590339660645,0.0,-2.126098347135211,-4.2551313233536625,-576,-1736,1244,6,7,8,12,
287,186,-24,22,767,767.690673828125,2.4280526638031006,0.0,-1.7915064121382962,1.6421714573280395,-596,-1801,1221,6,8,11,14,
288,190,-38,-22,786,787.2255249023438,3.1948800086975098,0.0,-2.7667879252853855,-1.601410611226041,-245,-2244,108,9,5,10,10,
289,190,-20,-87,811,815.8982543945312,6.278965473175049,12.941579818725586,-1.4046240958270682,-6.121140114683261,-548,-2382,-566,13,8,13,8,
290,190,-20,-7,763,763.294189453125,1.5881673097610474,0.0,-1.5014483124971951,-0.5254541315671444,-622,-1833,-621,10,5,7,6,
291,190,-38,-9,741,742.0283203125,3.0141751766204834,0.0,-2.9354573149369627,-0.6949528188435378,-485,-2061,-414,7,4,5,5,
292,190,-33,32,759,760.3906860351562,3.4632256031036377,0.0,-2.487346019083845,2.4119266451526213,-484,-1739,-174,9,6,5,6,
293,189,-21,-68,779,782.2442016601562,5.217502117156982,17.157119750976562,-1.5383379395055672,-4.9869806663819105,-501,-2222,882,16,9,12,13,
294,189,-15,-78,806,809.904296875,5.625686168670654,10.880537033081055,-1.0612189829224326,-5.526589099820141,-544,-2162,1084,10,6,9,10,
295,189,-6,9,704,704.0830688476562,0.8776290416717529,0.0,-0.48826458421978713,0.7324079578867578,-604,-2306,221,6,6,7,7,
296,189,-34,-4,787,787.7442626953125,2.4882147312164307,0.0,-2.4737239940758764,-0.2909371963902808,-431,-1978,-69,7,12,10,11,
297,189,-11,-13,721,721.2011108398438,1.3504081964492798,0.0,-0.8739282700958618,-1.0328402081777177,-466,-2463,-131,8,11,10,10,
298,195,-3,-6,792,792.0283813476562,0.48264119029045105,0.0,-0.21702220234869987,-0.43404751840723577,-464,-1962,-281,8,13,13,15,
299,195,-30,-48,796,798.010009765625,4.064941883087158,0.0,-2.154457289879998,-3.448400890492963,-440,-2588,-744,10,8,8,9,
300,195,-15,26,753,753.5980224609375,2.280174732208252,0.0,-1.1405197620281269,1.9771627464940857,-573,-2234,1,20,11,11,16,
301,195,-11,-4,768,768.0891723632812,0.8705186247825623,0.0,-0.8205754368830547,-0.29838221616743443,-561,-1956,1104,9,10,9,8,
302,195,-23,-69,792,795.3326416015625,5.244475364685059,18.4301815032959,-1.6571515091010518,-4.977018160059349,-515,-1965,31,16,9,16,10,
303,198,-42,-77,790,794.8540649414062,6.332850456237793,28.605987548828125,-3.028913150062756,-5.559139443846952,-401,-2174,156,15,13,12,10,
304,198,-21,-9,789,789.3307495117188,1.6560612916946411,0.0,-1.5245236409179235,-0.6533043380992141,-601,-2157,-66,11,14,9,8,
305,198,0,27,768,768.4744873046875,2.0108797550201416,0.0,0.0,2.0134754953909955,-844,-1895,-601,8,13,8,8,
306,198,-7,-29,793,793.5609741210938,2.1518726348876953,0.0,-0.5054125358054671,-2.094291101366335,-577,-1834,-831,8,8,5,6,
307,198,-5,-84,793,797.4522094726562,6.054757595062256,3.4012320041656494,-0.3592450772274863,-6.04649464838869,-605,-2087,594,6,5,5,8,
308,201,-3,15,734,734.1593627929688,1.1912873983383179,0.0,-0.23412874755301416,1.1707219419852235,-566,-2035,1393,5,6,11,9,
309,201,-5,-15,783,783.1596069335938,1.1542119979858398,0.0,-0.36580134395712105,-1.0974636833804543,-580,-2087,480,9,13,10,11,
310,201,-13,-41,744,745.2422485351562,3.3061060905456543,0.0,-0.9995178366787256,-3.153757891543918,-667,-2183,-133,8,12,10,10,
311,201,-11,6,776,776.1011352539062,0.9224364161491394,0.0,-0.8121037772273029,0.4429552773940827,-554,-1974,121,10,10,14,11,
312,201,-12,-2,756,756.097900390625,0.9192944169044495,0.0,-0.909377267516925,-0.15155669140611436,-542,-1967,-302,9,9,9,8,
313,204,-31,56,716,718.8553466796875,5.105948448181152,151.031494140625,-2.471596227290861,4.46796128558277,-521,-1938,279,8,8,7,6,
314,204,-27,-24,723,723.9019165039062,2.8578412532806396,0.0,-2.137506325748076,-1.8999130845242398,-604,-2055,-300,16,14,10,8,
315,204,-27,7,727,727.5348510742188,2.194589853286743,0.0,-2.1268277516111005,0.5512816726664355,-585,-1959,440,13,13,10,10,
316,204,-41,17,720,721.3667602539062,3.5250065326690674,0.0,-3.258250456604187,1.350378876449488,-545,-2229,700,11,9,9,8,
317,210,-9,-9,770,770.1051635742188,0.9443687796592712,0.0,-0.6696147003759483,-0.6696147003759483,-576,-2183,62,6,6,8,7,
318,210,-9,19,733,733.3014526367188,1.6402900218963623,0.0,-0.7032237156886638,1.4847122829188915,-564,-1974,59,9,6,8,7,
319,210,-16,10,720,720.2471923828125,1.498511552810669,0.0,-1.2729072936804786,0.7955271757704647,-536,-1871,-722,9,9,11,10,
320,210,-10,21,748,748.361572265625,1.7784619331359863,0.0,-0.7656390848985596,1.6080053081090138,-459,-2192,949,9,12,11,12,
321,210,-20,45,727,728.6658935546875,3.8725435733795166,0.0,-1.572818919800961,3.5406511826952185,-595,-2302,-116,8,9,12,11,
322,212,-27,49,779,781.0064086914062,4.1052961349487305,0.0,-1.9811545110585127,3.597074611396857,-525,-1916,775,15,11,12,11,
323,212,-13,-49,835,836.5375366210938,3.4717705249786377,0.0,-0.8904264434692543,-3.358009746218437,-601,-1827,-208,14,14,13,14,
324,212,-17,-93,813,818.4784545898438,6.6304779052734375,10.354050636291504,-1.1901330803757968,-6.524350585280259,-545,-1908,-89,14,11,9,8,
325,212,-13,0,737,737.1146240234375,1.0079119205474854,0.0,-1.0105398893472786,0.0,-624,-2514,565,13,9,11,9,
326,212,-2,77,751,754.9397583007812,5.853555202484131,178.5120849609375,-0.15178919336834015,5.854057106177713,-679,-2090,-50,16,10,15,10,
327,216,-22,14,795,795.4275512695312,1.8760887384414673,0.0,-1.5848934327532958,1.008492006063389,-617,-1960,639,13,12,8,10,
328,216,-18,-87,831,835.735595703125,6.09985876083374,11.684405326843262,-1.234126891542153,-5.975310932007819,-538,-1802,-191,19,13,9,10,
329,216,15,-63,795,797.6333618164062,4.654541492462158,0.0,1.0775468845784695,-4.530148647337152,-578,-2030,-216,7,10,11,9,
330,216,-14,50,711,712.8933715820312,4.174255847930908,0.0,-1.1252628810452043,4.021839611148934,-506,-1872,326,16,11,10,13,
331,216,-10,-24,747,747.4523315429688,1.9908324480056763,0.0,-0.7665704668913353,-1.840030502501677,-568,-2217,-89,11,12,9,13,
332,219,-18,23,754,754.5654296875,2.2156479358673096,0.0,-1.366908444534926,1.746710105642788,-539,-2030,-93,9,9,10,7,
333,219,-32,-24,759,760.0532836914062,3.0141820907592773,0.0,-2.4129979764882075,-1.8095143453117957,-508,-1975,262,9,6,6,8,
334,219,-24,36,743,744.2586669921875,3.3301422595977783,0.0,-1.8479288904351685,2.7724946418094927,-453,-1911,171,9,11,10,8,
335,219,-31,-10,761,761.69677734375,2.44834566116333,0.0,-2.33250275981646,-0.7522340424935298,-498,-2058,227,11,7,10,7,
336,219,-17,-12,780,780.2775268554688,1.5255531072616577,0.0,-1.2484088137722615,-0.8811947634417918,-649,-2134,317,6,6,5,4,
337,219,-12,-10,782,782.156005859375,1.1417124271392822,0.0,-0.8790782588687218,-0.7325564331487165,-617,-2128,-154,9,11,7,10,
338,219,-30,38,743,744.5757446289062,3.725656032562256,0.0,-2.309152383920957,2.925405484078134,-483,-2000,90,12,13,11,9,
339,219,-12,-19,787,787.32080078125,1.6329883337020874,0.0,-0.8733111084069861,-1.3828232911538894,-673,-2019,-5,8,7,7,8,
340,219,6,-65,781,783.72314453125,4.775186538696289,0.0,0.43864728068204994,-4.757430547423854,-519,-2346,368,7,7,6,7,
341,219,-16,-46,793,794.4942016601562,3.5119330883026123,0.0,-1.1539347594753901,-3.319194377523424,-644,-2235,621,10,8,9,9,
342,223,-24,20,754,754.6469116210938,2.370035171508789,0.0,-1.8224822072863809,1.5186568987134434,-574,-2002,368,8,13,8,9,
343,223,-15,22,766,766.462646484375,1.9882709980010986,0.0,-1.1213743534414002,1.6448032935279104,-554,-1861,126,6,8,6,7,
344,223,-22,3,754,754.3268432617188,1.6841410398483276,0.0,-1.6712727542925347,0.22786911423940617,-385,-1879,-652,10,9,10,10,
345,223,-23,-42,787,788.4554443359375,3.4793384075164795,0.0,-1.6716098456532638,-3.0535171620465826,-506,-2097,-279,9,8,10,9,
346,223,-38,8,749,750.0059814453125,2.9653584957122803,0.0,-2.9042063935349485,0.6111616819162259,-449,-1987,111,8,8,7,7,
347,230,-6,33,748,748.7516479492188,2.564899444580078,0.0,-0.45913537096854284,2.526035752209967,-575,-1845,526,9,10,8,7,
348,230,-29,-16,762,762.719482421875,2.4862611293792725,0.0,-2.1790163535978144,-1.202014304878562,-613,-2218,666,7,5,7,8,
349,230,-18,9,758,758.26708984375,1.5182104110717773,0.0,-1.3602342911483867,0.6800692283991019,-639,-2049,42,9,8,7,7,
350,230,-15,27,775,775.615234375,2.2796759605407715,0.0,-1.1081400049483843,1.9949307087557546,-556,-1972,-42,9,8,8,9,
351,230,-2,32,754,754.681396484375,2.432342052459717,0.0,-0.1518411540538852,2.430184209091862,-569,-1948,-96,6,8,7,8,
352,231,11,-54,765,766.982421875,4.117815971374512,0.0,0.8217596438713293,-4.037294651217124,-579,-2078,-164,7,9,8,8,
353,231,-9,-3,774,774.0581665039062,0.6995949149131775,0.0,-0.6661949664842811,-0.22206054114588844,-572,-2120,309,8,9,9,9,
354,231,-10,11,749,749.1475219726562,1.13443124294281,0.0,-0.7648357630717495,0.8413245869495958,-579,-2084,44,8,10,7,9,
355,231,-22,20,768,768.5753173828125,2.2144389152526855,0.0,-1.6402808390654509,1.4911290390125933,-571,-1967,820,10,6,7,7,
356,234,-20,-40,783,784.276123046875,3.26636004447937,0.0,-1.46127088164608,-2.9234933354113264,-384,-2092,814,11,8,7,8,
357,234,31,-68,831,834.3536376953125,5.136350154876709,335.4971923828125,2.1292866523185867,-4.6748032678063804,-448,-1906,26,7,8,8,10,
358,234,-33,-21,764,765.0006713867188,2.9282968044281006,0.0,-2.4723477041671327,-1.5730215781093728,-500,-2025,-572,6,8,6,7,
359,234,-29,24,754,754.9390869140625,2.8555188179016113,0.0,-2.2014843095404824,1.8217767373015303,-533,-1925,-1115,6,7,7,6,
360,234,-6,35,763,763.8258666992188,2.6620891094207764,0.0,-0.4500740472174257,2.626324550293784,-725,-1717,293,5,9,7,8,
361,236,-9,-53,804,805.7952880859375,3.82279109954834,0.0,-0.6399550401705315,-3.771268291465004,-516,-1848,921,7,8,10,11,
362,236,12,-47,792,793.4840698242188,3.502274990081787,0.0,0.8665272239238552,-3.3957565512919,-571,-1917,1015,9,10,11,12,
363,236,13,-7,747,747.1458740234375,1.129711389541626,0.0,0.9969708981523555,-0.5368112477989615,-794,-1852,726,10,9,13,13,
364,236,-15,20,732,732.4267578125,1.9534634351730347,0.0,-1.1734917347606932,1.5647407551580368,-720,-1845,-860,11,13,10,10,
365,236,-18,4,739,739.22998046875,1.426703691482544,0.0,-1.395270707044255,0.31003102547974715,-650,-1879,-75,9,10,7,9,
366,237,-9,-18,734,734.2758178710938,1.5679152011871338,0.0,-0.7022904805164564,-1.4046865015671781,-679,-2247,-179,7,9,12,9,
367,237,-32,-27,739,740.1851196289062,3.240124464035034,0.0,-2.4778079605553702,-2.0904626380450577,-536,-1782,121,10,9,9,9,
368,237,-15,15,767,767.2932739257812,1.5816373825073242,0.0,-1.1201602442376588,1.1201602442376588,-672,-1898,878,12,16,11,10,
369,237,-21,-15,732,732.4547729492188,2.0165557861328125,0.0,-1.642935933888847,-1.1734468869454273,-635,-1870,845,8,14,14,12,
370,237,-41,-6,744,745.1530151367188,3.185201406478882,0.0,-3.1541359614180555,-0.46135275565702216,-645,-2003,784,11,12,9,12,
371,237,-10,7,719,719.1036376953125,0.9699963927268982,0.0,-0.7967923627346404,0.5577454849240303,-724,-2011,36,12,10,12,12,
372,237,-18,22,780,780.5177612304688,2.0844976902008057,0.0,-1.3214503242884459,1.6151766853728198,-633,-1928,-657,10,8,10,9,
373,237,-32,-20,780,780.9122924804688,2.7672019004821777,0.0,-2.348507611569773,-1.4675667410284325,-639,-1944,-867,11,9,10,10,
374,237,-25,-84,798,802.7982177734375,6.264990329742432,16.56918716430664,-1.7845406827910346,-6.006080859651675,-562,-1838,-184,9,11,9,11,
375,237,-32,-9,766,766.720947265625,2.482279062271118,0.0,-2.3920015146878684,-0.672570463847994,-471,-1953,1090,5,13,9,13,
376,245,-34,1,762,762.7587890625,2.553335666656494,0.0,-2.554807848784775,0.07511653131396452,-324,-2224,870,7,6,6,10,
377,245,-38,16,804,805.0565185546875,2.9331257343292236,0.0,-2.705460871359806,1.138793128959772,-291,-2056,578,10,7,6,8,
378,245,-18,-28,792,792.6991577148438,2.404057502746582,0.0,-1.3011400766251153,-2.0242427941051035,-471,-1944,-109,10,10,9,10,
379,245,-34,0,767,767.7532348632812,2.535597085952759,0.0,-2.5381773342406952,0.0,-173,-1918,-1035,13,12,12,12,
380,245,-26,18,760,760.6575927734375,2.3800554275512695,0.0,-1.9588057448156515,1.3559587043941617,-436,-2091,-1041,11,14,15,14,
381,247,-18,-1,754,754.2155151367188,1.3670333623886108,0.0,-1.3675428021846132,-0.0759674089564467,-615,-2067,-683,8,9,13,10,
382,247,-22,-1,757,757.3202514648438,1.6637797355651855,0.0,-1.664664931676784,-0.07565596485499546,-451,-2135,278,11,13,14,14,
383,247,-18,-57,819,821.1784057617188,4.171789646148682,0.0,-1.2560079630122483,-3.9802405682753936,-394,-1950,1583,17,14,15,18,
384,247,-11,3,771,771.0842895507812,0.8446109294891357,0.0,-0.8173878684015221,0.2229169649190933,-447,-1876,1581,10,16,17,14,
385,247,19,3,762,762.2427368164062,1.4434107542037964,0.0,1.428327895751632,0.22550268109632424,-666,-2060,536,10,8,11,9,
386,248,0,-21,767,767.2874145507812,1.5657225847244263,0.0,0.0,-1.568332268395283,-423,-2081,-856,10,12,12,15,
387,248,-2,16,769,769.1690063476562,1.1985890865325928,0.0,-0.1489811515620465,1.1919338401761685,-512,-2116,-1501,9,11,12,10,
388,248,9,-1,735,735.0557861328125,0.7032286524772644,0.0,0.7015452631020215,-0.07794755000991917,-673,-2062,-589,9,14,8,9,
389,248,3,-6,790,790.0285034179688,0.48387065529823303,0.0,0.2175715887204783,-0.4351463148579437,-549,-2091,1506,14,11,16,12,
390,248,10,-6,773,773.0879516601562,0.8617005348205566,0.0,0.7411495207900908,-0.4446817754016072,-522,-2065,1241,7,13,10,8,
391,254,-30,-24,733,734.006103515625,2.997734546661377,0.0,-2.3424222669829353,-1.873749810787758,-559,-2177,66,13,12,12,11,
392,254,-16,-4,739,739.1840209960938,1.275854468345642,0.0,-1.2402920803591342,-0.3100503171430889,-797,-2110,-152,9,10,10,8,
393,254,11,42,737,738.2777099609375,3.3688364028930664,0.0,0.8537124637322113,3.261269526888196,-747,-2004,-29,13,14,14,16,
394,254,-13,-18,785,785.31396484375,1.6175652742385864,0.0,-0.9485113009614441,-1.3133783700959853,-743,-1777,96,12,9,9,11,
395,255,0,-48,812,813.41748046875,3.38044810295105,0.0,0.0,-3.3830057913306155,-746,-1652,-912,13,12,15,12,
396,255,-14,-21,787,787.4046020507812,1.8342252969741821,0.0,-1.0187687305598843,-1.528253780605134,-586,-1839,-150,12,21,14,13,
397,255,-3,31,735,735.6595458984375,2.4238109588623047,0.0,-0.23365130072197476,2.4151051925872826,-704,-1779,546,11,9,12,10,
398,255,-37,3,778,778.8850708007812,2.729156732559204,0.0,-2.7227918028788225,0.22068436461313495,-509,-2024,997,11,13,18,16,
399,255,-15,-39,792,793.1015014648438,3.0175015926361084,0.0,-1.0837048361385937,-2.8186012924809254,-519,-2003,886,12,14,15,14,
400,258,-28,-56,807,809.4251098632812,4.4337968826293945,0.0,-1.9823970704552794,-3.967172283851515,-568,-1835,-142,14,14,20,15,
401,258,-66,4,777,779.8082885742188,4.861522674560547,0.0,-4.855104390280265,0.2938980262359783,-363,-1949,-1156,17,18,20,18,
402,258,-21,-10,750,750.360595703125,1.7737147808074951,0.0,-1.6037202990250374,-0.7635992241368962,-466,-2093,-1139,13,17,21,17,
403,258,-7,-50,788,789.61572265625,3.6634175777435303,0.0,-0.507937842677199,-3.6305088758193373,-672,-2126,290,19,16,19,16,
404,258,-48,-6,723,724.616455078125,3.8252227306365967,0.0,-3.7981648169333284,-0.4744283757419275,-613,-2368,1693,20,27,20,23,
405,262,-27,24,714,714.9132690429688,2.8938374519348145,0.0,-2.16439402651788,1.9238097257186506,-631,-2093,-364,23,23,27,27,
406,262,6,-27,810,810.4721069335938,1.9530876874923706,0.0,0.4241698434852265,-1.909100096613378,-928,-1985,325,15,18,23,20,
407,262,-36,-45,804,806.0626831054688,4.097229480743408,0.0,-2.559769247678345,-3.2003110815764457,-778,-1853,526,15,17,18,16,
408,262,-35,-45,803,805.0211181640625,4.058350563049316,0.0,-2.491840958741527,-3.204455958257949,-700,-1757,-891,17,20,18,20,
409,262,-24,14,761,761.507080078125,2.088404655456543,0.0,-1.8060587088309386,1.0534191345848267,-453,-1860,-833,17,23,24,23,
410,264,-45,-11,753,754.4236450195312,3.5178756713867188,0.0,-3.4196191060859653,-0.8354403159502228,-332,-1962,73,14,17,14,17,
411,264,-28,-52,720,722.4181518554688,4.686773777008057,0.0,-2.221267200383879,-4.127746919292208,-544,-1955,850,10,21,21,22,
412,264,24,18,746,746.6029663085938,2.300290107727051,0.0,1.8421245177834633,1.3814892307422368,-694,-1763,1370,16,16,16,17,
413,264,-24,6,771,771.3967895507812,1.835188388824463,0.0,-1.7828965281493543,0.44565669725084706,-504,-1967,344,12,13,9,13,
414,264,-14,17,759,759.3194580078125,1.6593877077102661,0.0,-1.0564544160597455,1.2828720032327252,-639,-1955,375,10,10,8,9,
415,264,-3,-53,822,823.7123413085938,3.6924877166748047,0.0,-0.20867445175970414,-3.6891223191351195,-802,-1745,-716,20,14,15,17,
416,264,-50,6,798,799.58740234375,3.6083781719207764,0.0,-3.5851731954438377,0.4299441263426674,-636,-1772,-1059,9,10,11,10,
417,264,-29,-13,747,747.6757202148438,2.433551073074341,0.0,-2.222881439267758,-0.9962643385689942,-625,-1841,528,7,10,11,10,
418,264,-23,-40,753,754.412353515625,3.503941535949707,0.0,-1.7470646542515382,-3.039327702536574,-512,-1984,289,12,9,13,11,
419,264,1,-22,771,771.314453125,1.6335346698760986,0.0,0.07428331549960798,-1.6344541516962394,-540,-2035,300,8,7,7,9,
420,265,-17,-6,737,737.220458984375,1.3986170291900635,0.0,-1.3213341918301187,-0.4663170558980247,-649,-2231,242,7,5,8,10,
421,265,1,45,743,744.3621215820312,3.464202404022217,0.0,0.07697301277749365,3.4658978825191897,-732,-1921,-226,10,7,9,10,
422,265,0,-14,781,781.12548828125,1.0243321657180786,0.0,0.0,-1.0269590421140036,-711,-1865,471,9,10,9,10,
423,265,-9,-66,813,815.7242431640625,4.681385040283203,0.0,-0.6321652179572861,-4.640857099276512,-785,-1970,161,11,14,17,11,
424,265,-16,0,785,785.1630249023438,1.1650314331054688,0.0,-1.1676503910424678,0.0,-697,-1960,64,12,12,14,14,
425,275,-36,49,750,752.4606323242188,4.632349491119385,0.0,-2.742250792102085,3.733725207149206,-489,-1729,-350,11,11,11,13,
426,275,-36,-48,738,740.4349975585938,4.645450115203857,0.0,-2.78682336816348,-3.716906047830395,-488,-2002,-535,12,13,15,14,
427,275,12,-69,723,726.3842163085938,5.530381679534912,350.13922119140625,0.946579834522862,-5.45080488622287,-551,-2188,150,14,15,19,21,
428,275,8,10,747,747.1097412109375,0.9795316457748413,0.0,0.6135309934183767,0.7669219865339636,-904,-2164,186,13,12,10,11,
429,275,-29,50,751,753.2210693359375,4.398620128631592,0.0,-2.206508054755622,3.806182776984326,-592,-1937,1085,10,8,12,10,
430,271,-9,-21,786,786.3319702148438,1.6623862981796265,0.0,-0.6557958736018217,-1.5303389106956178,-781,-1864,225,8,8,8,7,
431,271,-31,-61,761,764.0700073242188,5.1354146003723145,26.935014724731445,-2.325253924085116,-4.579116932645801,-473,-2075,-383,8,7,10,6,
432,271,-9,3,734,734.061279296875,0.7378655672073364,0.0,-0.7024957342095293,0.23416002965882945,-581,-2313,160,11,8,9,8,
433,271,-27,9,736,736.550048828125,2.2118844985961914,0.0,-2.1007841714642255,0.700121922668448,-667,-2531,-55,23,12,15,13,
434,271,-26,-15,768,768.5863647460938,2.235633611679077,0.0,-1.9385909053041208,-1.1182754465840554,-655,-2479,730,11,10,12,14,
435,279,-20,-2,749,749.2696533203125,1.5345760583877563,0.0,-1.5295584434921208,-0.15293785883645203,-554,-1366,-68,20,14,14,10,
436,279,-34,-14,770,770.87744140625,2.7313766479492188,0.0,-2.5278839335556516,-1.040612931717131,-496,-1762,265,15,15,16,13,
437,279,-6,-31,812,812.6137084960938,2.2242815494537354,0.0,-0.42305194631164705,-2.1862790325778785,-563,-1875,-147,10,13,15,14,
438,279,-27,3,775,775.4760131835938,2.0049781799316406,0.0,-1.9952890951140043,0.22165453358276657,-596,-1608,-710,9,8,12,9,
439,279,-33,-24,759,760.0960693359375,3.074740409851074,0.0,-2.4883108166898227,-1.8094125178138172,-563,-2319,591,12,12,16,14,
440,277,-25,-36,760,761.2627563476562,3.298032522201538,0.0,-1.881941614477354,-2.7105195746835484,-330,-1812,-228,16,17,19,23,
441,277,-50,-58,828,831.5335083007812,5.281414031982422,40.75949478149414,-3.447267047188564,-3.9996652515727726,-704,-2072,-765,19,17,24,22,
442,277,-21,-10,783,783.3453979492188,1.698894739151001,0.0,-1.5361749124682096,-0.7314440929641396,-695,-2049,422,10,10,9,11,
443,277,-18,-39,759,760.2144165039062,3.2364771366119385,0.0,-1.3567493078794486,-2.940639623366107,-503,-2124,-283,9,11,10,10,
444,277,-42,-6,727,728.2369384765625,3.337334632873535,0.0,-3.306285023588129,-0.47206968076829514,-393,-2149,716,7,10,10,10,
445,288,-7,-14,764,764.1603393554688,1.1710625886917114,0.0,-0.5248585324525182,-1.0497611148433197,-662,-2046,819,12,14,15,13,
446,288,-12,-30,768,768.6793823242188,2.4065232276916504,0.0,-0.8944916383491759,-2.2367063220061314,-709,-2175,221,11,10,12,12,
447,288,-18,28,762,762.7266845703125,2.498692512512207,0.0,-1.3522796601125902,2.1038235675632895,-688,-2160,-795,9,12,12,11,
448,288,12,-5,807,807.1046752929688,0.9202711582183838,0.0,0.8519027161470958,-0.3549486569596233,-862,-1854,-1067,10,10,11,9,
449,285,-37,-36,758,759.755859375,3.8935744762420654,0.0,-2.791400182791338,-2.715899591959847,-450,-1626,403,11,9,13,15,
450,285,-54,-17,708,710.2598266601562,4.569209098815918,0.0,-4.360320719913816,-1.371499921471094,-193,-2325,-10,13,10,12,10,
451,285,-9,42,771,772.195556640625,3.186171293258667,0.0,-0.6678019277808278,3.1178770036074015,-472,-2109,1295,15,13,13,13,
452,285,-19,-41,796,797.2816162109375,3.2466065883636475,0.0,-1.3655436607120965,-2.9477207053546204,-595,-1805,869,9,10,9,10,
453,285,-26,-17,798,798.6044311523438,2.2266857624053955,0.0,-1.8656966371687635,-1.21975513725993,-610,-1609,-840,9,8,9,7,
454,291,-27,-145,852,864.6721801757812,9.818944931030273,10.543061256408691,-1.789392058528695,-9.653747562145812,-556,-2137,71,12,12,10,10,
455,291,-15,30,769,769.7311401367188,2.4948742389678955,0.0,-1.1166121176194002,2.2336486109774527,-631,-1522,-542,14,9,13,10,
456,291,-33,29,750,751.2855834960938,3.349752426147461,0.0,-2.517510438338704,2.212195449027208,-433,-1882,147,13,15,16,13,
457,291,-2,-42,795,796.1111450195312,3.0249876976013184,0.0,-0.14393929318891316,-3.024125898204564,-885,-2041,599,9,10,13,14,
458,291,-2,-45,822,823.2332763671875,3.134028196334839,0.0,-0.13919708708264106,-3.1334931762309934,-753,-1636,570,6,8,9,9,
459,291,-15,-50,848,849.605224609375,3.52004075050354,0.0,-1.011624393785257,-3.37385554290639,-748,-1871,234,10,9,8,9,
460,291,-25,48,759,760.9270629882812,4.07602071762085,0.0,-1.882772175452127,3.616673327111437,-717,-2079,-427,22,17,20,15,
461,291,-18,-50,759,760.8580932617188,4.0024847984313965,0.0,-1.3556013926602133,-3.767923405834398,-522,-2029,-254,12,11,15,13,
462,291,-21,-42,748,749.4724731445312,3.5896084308624268,0.0,-1.605621149151386,-3.2125049438363704,-494,-2021,-749,9,9,10,11,
463,291,8,-14,689,689.1886596679688,1.3380178213119507,0.0,0.6650958746982818,-1.1639717027212073,-528,-2459,-922,9,15,12,11,
464,294,-33,19,742,742.9764404296875,2.935229539871216,0.0,-2.545683594753787,1.465374178121932,-503,-1955,298,13,9,12,9,
465,294,-3,24,743,743.3935546875,1.8618814945220947,0.0,-0.23122046250563535,1.8500801581616813,-634,-1895,667,13,10,14,18,
466,294,-18,9,735,735.2754516601562,1.5657840967178345,0.0,-1.4027764142038877,0.7013356518180102,-624,-1596,1465,11,12,13,12,
467,294,-34,-69,727,731.0581665039062,6.037374496459961,26.227399826049805,-2.6656696081380766,-5.415851251363825,-792,-2365,-978,22,14,15,14,
468,294,-24,-52,841,842.9478149414062,3.893232822418213,0.0,-1.631518051172113,-3.5367236365015136,-557,-2620,603,14,9,13,14,
469,298,9,37,795,795.9114379882812,2.73968243598938,0.0,0.6479025025783585,2.6645027069684226,-926,-1474,-834,16,14,15,14,
470,298,-30,-62,858,860.7601318359375,4.587104797363281,0.0,-1.9973294658265492,-4.130555223066553,-662,-1755,-1620,14,11,9,8,
471,298,-13,-113,844,851.6301879882812,7.673041343688965,6.557582855224609,-0.8746449599553981,-7.624874081816701,-553,-1776,1989,8,14,12,11,
472,298,-55,15,681,683.3820190429688,4.782747745513916,0.0,-4.616275626570179,1.2577236156353064,-565,-2345,604,16,13,15,12,
473,298,-10,49,760,761.6436157226562,3.762239694595337,0.0,-0.7522865612204391,3.688645738622896,-466,-2002,1908,10,10,11,10,
474,304,-17,-16,783,783.3479614257812,1.705171823501587,0.0,-1.2435147522603718,-1.1703563322915629,-573,-1960,-605,13,11,14,11,
475,304,-41,-96,813,819.67431640625,7.314268112182617,23.12189483642578,-2.86712365158356,-6.725900470140491,-313,-2254,-1197,12,17,14,15,
476,304,-22,-46,805,806.61328125,3.6218273639678955,0.0,-1.5629093876476274,-3.269269916336883,-470,-1812,225,10,8,11,14,
477,304,-26,25,771,771.84326171875,2.6759138107299805,0.0,-1.9304076891031532,1.8561347349233495,-684,-1949,-604,7,7,9,7,
478,304,-38,-51,760,762.6565551757812,4.781115531921387,0.0,-2.8559926856915667,-3.8343170491867196,-531,-1855,198,14,11,16,10,
479,306,-32,-21,766,766.9556884765625,2.8579914569854736,0.0,-2.3912690069874305,-1.5690108467065278,-474,-2465,595,11,8,7,9,
480,306,-3,-33,787,787.697265625,2.4083878993988037,0.0,-0.21821549868349824,-2.4010673961874507,-766,-2130,583,11,13,15,12,
481,306,10,10,777,777.128662109375,1.0400967597961426,0.0,0.7372956577513683,0.7372956577513683,-627,-2060,189,9,12,14,13,
482,306,11,19,726,726.3319091796875,1.7295153141021729,0.0,0.8677543789308368,1.498962159357475,-669,-2135,-542,13,11,11,12,
483,306,-38,-43,788,790.0867309570312,4.162575721740723,0.0,-2.756760609089021,-3.119830257340355,-299,-2123,-587,12,14,11,11,
484,306,-24,18,752,752.59814453125,2.2819368839263916,0.0,-1.8274451658964235,1.3704821873807964,-379,-2291,27,10,10,9,9,
485,306,-41,-4,759,760.1171264648438,3.1041109561920166,0.0,-3.0919809143328165,-0.3015116709863482,-406,-2221,-158,16,9,11,11,
486,306,-26,24,767,767.8157348632812,2.6387429237365723,0.0,-1.940537349669142,1.7912145669884982,-351,-1600,203,15,15,7,9,
487,306,-16,-57,776,778.255126953125,4.360260963439941,0.0,-1.1780161330411147,-4.200147608793139,-625,-2282,1683,12,10,14,11,
488,311,-14,-9,733,733.1889038085938,1.2981010675430298,0.0,-1.0941104508290254,-0.703331636240175,-604,-2346,709,16,9,11,11,
489,311,-7,25,741,741.4546508789062,2.0039877891540527,0.0,-0.5409318210439521,1.9322368966304748,-722,-1964,-169,9,8,11,11,
490,311,-3,39,754,755.013916015625,2.967100143432617,0.0,-0.22766175458724353,2.9609127393164774,-734,-1971,-652,8,9,6,5,
491,311,1,-42,798,799.1051025390625,3.0110743045806885,0.0,0.07169994624080575,-3.012785142990955,-1011,-1668,-959,10,8,7,8,
492,311,-30,-99,842,848.3306884765625,7.001641273498535,16.85359001159668,-2.026605691012064,-6.701674959392456,-824,-1910,-463,6,7,8,7,
493,311,-22,16,777,777.47607421875,2.002519130706787,0.0,-1.6214974517443954,1.1791967080598549,-688,-1824,1411,6,9,12,9,
494,311,23,39,671,672.5258178710938,3.8577420711517334,0.0,1.959865149567602,3.3244666490485026,-951,-1821,974,22,14,13,17,
495,311,-38,-9,722,723.0552978515625,3.0934078693389893,0.0,-3.012553890769772,-0.7131893171262846,-609,-2054,13,15,15,15,14,
496,311,-7,6,777,777.0546875,0.6771775484085083,0.0,-0.5161488420030933,0.4424117055541384,-740,-1572,-1250,16,17,20,11,
497,311,-34,-52,762,764.5286254882812,4.658721446990967,0.0,-2.5488898246620084,-3.900027355139568,-570,-1777,-959,18,18,17,13,
498,311,-27,-13,811,811.553466796875,2.1135404109954834,0.0,-1.9065553536807316,-0.917840954076496,-624,-2678,781,15,15,16,13,
499,311,-23,-3,762,762.3529663085938,1.7409085035324097,0.0,-1.7288618711487664,-0.22547008598482446,-613,-2054,374,15,15,17,14,
500,311,-15,-70,738,741.464111328125,5.538106918334961,12.089802742004395,-1.159186716028351,-5.417236548643254,-648,-2448,578,17,17,18,17,
501,311,-25,9,744,744.4743041992188,2.042757034301758,0.0,-1.924396602423472,0.6926694030775069,-572,-2032,499,11,13,15,13,
502,311,-5,51,754,755.7393798828125,3.885507583618164,0.0,-0.3790737888931603,3.869465182969674,-701,-1973,-15,7,17,10,8,
503,321,-29,43,724,725.8553466796875,4.094968318939209,0.0,-2.2897398913504436,3.396216361744131,-467,-1659,-194,16,9,11,7,
504,321,-39,-79,743,748.2052001953125,6.759893417358398,26.26968002319336,-2.9878816005447035,-6.060930126598048,-254,-2293,-639,14,13,11,11,
505,321,-38,-3,764,764.9503173828125,2.853715658187866,0.0,-2.84742162371045,-0.22470449845924048,-318,-2133,-1064,11,10,11,13,
506,321,-9,47,744,745.5374145507812,3.677638530731201,0.0,-0.6916816618375811,3.614424424838945,-650,-2099,560,7,7,9,9,
507,321,-26,7,793,793.4569702148438,1.9420976638793945,0.0,-1.877804341704088,0.5054787629435906,-382,-1461,741,6,8,10,10,
508,322,-5,-15,781,781.1600341796875,1.1571763753890991,0.0,-0.3667377246378484,-1.1002732847354821,-590,-1448,92,11,7,11,9,
509,322,-4,-44,789,790.2360229492188,3.2024686336517334,0.0,-0.2900197978032987,-3.1918548425474422,-614,-1952,467,11,10,10,11,
510,322,-32,9,756,756.73046875,2.515105962753296,0.0,-2.423599814649756,0.6814502593191369,-602,-1875,585,9,10,6,10,
511,322,-9,24,769,769.4270629882812,1.9064565896987915,0.0,-0.6702048865506192,1.7874622046232675,-657,-2056,-621,8,9,8,7,
512,322,-7,-24,779,779.4010620117188,1.8355298042297363,0.0,-0.5145949542055995,-1.7645807753445542,-545,-1966,-664,10,8,8,9,
513,324,-22,-60,824,826.4744262695312,4.432232856750488,0.0,-1.5253418576683409,-4.163194293482313,-583,-2075,579,12,9,11,10,
514,324,-32,-20,779,779.9134521484375,2.770753860473633,0.0,-2.35151701934473,-1.4694466564729114,-585,-2116,405,12,13,15,14,
515,324,-30,23,740,740.9649047851562,2.921780586242676,0.0,-2.320411288456625,1.7787814532821016,-475,-1835,463,14,13,17,18,
516,324,-9,-20,750,750.3206176757812,1.6723791360855103,0.0,-0.6872720581152256,-1.5274155243538732,-577,-1804,50,10,9,12,15,
517,324,-3,18,743,743.2240600585938,1.4043067693710327,0.0,-0.23127319886285577,1.3877711138944593,-527,-2044,216,10,10,10,11,
518,329,-14,17,753,753.3219604492188,1.6726250648498535,0.0,-1.0648661783839664,1.2930871167978377,-580,-1793,-521,9,6,8,6,
519,329,-36,-75,808,812.271484375,5.876040458679199,25.63644790649414,-2.5401899640702763,-5.297875054894697,-468,-2093,-665,6,6,8,7,
520,329,-22,0,759,759.3187866210938,1.6576733589172363,0.0,-1.6602823689828055,0.0,-546,-2445,966,14,6,11,11,
521,329,-22,-17,739,739.5228271484375,2.1519887447357178,0.0,-1.7047386708332546,-1.3172197431368844,-500,-2344,4,10,12,11,10,
522,328,-9,-25,732,732.4820556640625,2.0762534141540527,0.0,-0.7040103837548327,-1.9559150554212024,-547,-2370,432,10,14,8,11,
523,328,-9,17,757,757.2443237304688,1.452959656715393,0.0,-0.6809877936208155,1.2863880628761644,-568,-2039,592,8,10,8,7,
524,328,-15,47,782,783.5547485351562,3.6074016094207764,0.0,-1.0969102380441897,3.438839706910205,-573,-952,-197,7,9,7,9,
525,328,-10,-41,763,764.1661987304688,3.16326904296875,0.0,-0.7498030403780632,-3.075581523244427,-577,-2308,-598,16,13,12,13,
526,328,-5,-11,768,768.0950317382812,0.8987417817115784,0.0,-0.37297587359728795,-0.8205691774867588,-412,-2123,-362,13,16,15,12,
527,331,-47,27,772,773.9005126953125,4.013700485229492,0.0,-3.4817909058393317,1.999352664322511,-466,-1811,1456,13,13,13,16,
528,331,-24,33,759,760.0960693359375,3.074740409851074,0.0,-1.8094125178138172,2.4883108166898227,-384,-1562,309,12,19,16,17,
529,331,-6,13,765,765.1339721679688,1.0696040391921997,0.0,-0.44930458145196084,0.9735301255016603,-730,-1431,-549,9,9,12,11,
530,331,-29,-80,829,833.3558959960938,5.858213424682617,19.920860290527344,-1.9942418485657358,-5.508729256481028,-457,-2038,454,10,8,10,9,
531,331,-2,-27,761,761.4814453125,2.034950017929077,0.0,-0.15048520308030686,-2.0319738282981574,-534,-2068,-303,10,9,10,9,
532,339,-14,-1,783,783.1257934570312,1.0243184566497803,0.0,-1.024335627213559,-0.07316295281530001,-451,-2045,-67,8,6,7,8,
533,339,-40,2,761,762.0531616210938,3.0100224018096924,0.0,-3.0088254266915446,0.15037230790855255,-497,-1729,-19,10,8,6,10,
534,339,-29,-47,812,813.8759155273438,3.8883423805236816,0.0,-2.0419936045212705,-3.3105791630786428,-582,-1759,-114,10,10,10,9,
535,339,-18,-24,783,783.5745239257812,2.191577672958374,0.0,-1.3162944361941495,-1.7551793719991562,-479,-1876,431,9,7,10,8,
536,339,1,13,760,760.11181640625,0.9802283048629761,0.0,0.07537811343983201,0.9799629698437418,-482,-2089,560,5,6,5,8,
537,336,-10,-4,760,760.0762939453125,0.8092772960662842,0.0,-0.75383789337992,-0.30152784969236424,-504,-1950,366,8,7,12,11,
538,336,-18,-44,759,760.4873657226562,3.5814528465270996,0.0,-1.3562623484283458,-3.316850649432381,-596,-2263,-282,9,12,7,6,
539,336,-24,5,772,772.38916015625,1.8162477016448975,0.0,-1.7806051245234045,0.37090228183152996,-472,-1887,28,8,14,10,7,
540,336,-15,30,759,759.74072265625,2.5277352333068848,0.0,-1.13129714822384,2.263035644551629,-498,-2062,427,8,10,8,7,
541,336,-15,23,780,780.483154296875,2.0136048793792725,0.0,-1.1012275819248927,1.6886894744173753,-479,-1686,507,5,9,10,9,
542,341,-29,-36,722,723.4783935546875,3.660944938659668,0.0,-2.297266751133811,-2.852193231137951,-614,-2030,55,12,7,8,7,
543,341,-24,-39,750,751.396728515625,3.4914350509643555,0.0,-1.8303682043329912,-2.9751793042397585,-542,-2317,-170,13,15,8,12,
544,341,-20,24,730,730.668212890625,2.4479427337646484,0.0,-1.5685077744267475,1.8823128178188566,-590,-2033,877,10,13,12,15,
545,341,-18,47,778,779.626220703125,3.6987648010253906,0.0,-1.3229618099117066,3.456188978540509,-549,-2003,-124,11,10,14,11,
546,341,3,-7,796,796.0364379882812,0.5455217957496643,0.0,0.2159294960131619,-0.5038407915834394,-548,-1671,361,10,8,8,10,
547,345,-9,-126,813,822.755126953125,8.829399108886719,4.080432415008545,-0.6267627909772814,-8.809169379858156,-535,-1730,661,13,12,14,12,
548,345,-21,-32,804,804.9105834960938,2.7229957580566406,0.0,-1.4950082415969248,-2.2784497676651587,-563,-2008,-43,15,10,15,15,
549,345,-23,12,735,735.4577026367188,2.018850803375244,0.0,-1.79210559722409,0.934900651576431,-539,-1874,250,12,8,9,9,
550,345,-37,23,774,775.2251586914062,3.21903920173645,0.0,-2.7356563286131097,1.7001465597419316,-284,-2102,-336,13,13,17,12,
551,345,-3,-55,823,824.8411865234375,3.8264384269714355,0.0,-0.2083888609850253,-3.8232907634287296,-445,-1613,-89,16,10,11,8,
552,345,-44,-106,798,806.2108764648438,8.181817054748535,22.538415908813477,-3.1285455359464724,-7.555080645745214,-527,-1957,-431,13,10,11,9,
553,345,-15,-10,793,793.2048950195312,1.299699306488037,0.0,-1.0835635712656295,-0.7223517905950052,-552,-1870,174,11,10,12,11,
554,345,-44,16,732,733.4957275390625,3.6571130752563477,0.0,-3.4390502285927167,1.2499120834419417,-404,-2018,1082,8,12,11,10,
555,345,-31,-44,750,751.9288330078125,4.102263450622559,0.0,-2.3628202314183073,-3.3546461591806502,-521,-2247,-137,6,8,10,9,
556,345,-16,26,726,726.6416015625,2.4053142070770264,0.0,-1.2617039535562626,2.050540930465353,-541,-2262,345,8,11,9,11,
557,347,-20,48,735,736.837158203125,4.044300556182861,0.0,-1.5553726214881334,3.735080742673138,-610,-2101,-492,12,11,8,9,
558,347,-14,29,745,745.6956787109375,2.472477436065674,0.0,-1.0757579789282496,2.2287869441655315,-476,-2067,164,6,10,5,6,
559,347,-16,-51,733,734.9462280273438,4.168135643005371,0.0,-1.2474448207685602,-3.979114086438747,-534,-2231,447,6,10,13,11,
560,347,-10,-1,756,756.0667724609375,0.758985161781311,0.0,-0.7578358217290285,-0.07578139460968757,-580,-2133,-204,7,7,8,11,
561,347,-27,9,775,775.5223999023438,2.1005489826202393,0.0,-1.9951696115342483,0.6649370643436554,-613,-2045,65,6,7,7,8,
562,355,-12,20,780,780.3486328125,1.7101579904556274,0.0,-0.8811144401373046,1.4686269987835088,-626,-1972,754,7,8,6,7,
563,355,9,-24,795,795.4130859375,1.844061017036438,0.0,0.6483084313905049,-1.729048018014762,-524,-1843,579,7,6,8,12,
564,355,6,-42,777,778.1574096679688,3.122846841812134,0.0,0.4417847420850919,-3.093965993844904,-555,-1895,22,6,7,8,7,
565,355,-12,-24,792,792.4544067382812,1.9378286600112915,0.0,-0.8676532305384849,-1.7355055135792943,-634,-1828,-1650,8,11,10,11,
566,358,-23,24,759,759.7276000976562,2.5051677227020264,0.0,-1.7348380388150288,1.8102903652497315,-593,-2040,-373,11,9,11,12,
567,358,16,-26,783,783.5949096679688,2.23020339012146,0.0,1.169987401689365,-1.9014464059634948,-702,-1893,691,10,8,10,14,
568,358,-3,-40,769,770.0454711914062,2.983370065689087,0.0,-0.2232176979163422,-2.9775685215542675,-494,-2082,708,7,8,10,7,
569,358,2,-62,788,790.4378662109375,4.49858283996582,0.0,0.14497241094076185,-4.498761076047989,-642,-2096,991,10,6,8,9,
570,358,-12,-8,771,771.1348876953125,1.0690165758132935,0.0,-0.8916431175529423,-0.5944154150803317,-657,-2238,246,7,10,8,12,
571,359,-11,-5,769,769.0949096679688,0.8975669145584106,0.0,-0.8195023081884799,-0.37249097241395823,-561,-1996,-778,6,8,7,4,
572,359,-14,1,749,749.1314697265625,1.0709290504455566,0.0,-1.0708235006231686,0.07648296293523785,-510,-2059,-646,5,6,6,6,
573,359,9,-8,765,765.0947875976562,0.8991720676422119,0.0,0.6740000481880554,-0.5991082538446855,-614,-2014,1,7,6,7,9,
574,359,-36,37,771,772.726318359375,3.828077793121338,0.0,-2.670279025866461,2.7445094566510355,-425,-1851,401,8,5,7,8,
575,359,-31,23,732,733.0170288085938,3.016012668609619,0.0,-2.4238167970079667,1.7980744849240824,-537,-1958,744,11,10,10,9,
576,363,-12,-19,776,776.3253173828125,1.6561570167541504,0.0,-0.8856811963119136,-1.4024127424431063,-754,-2029,588,5,11,7,9,
577,363,-19,15,739,739.3963623046875,1.8735682964324951,0.0,-1.4724709077008076,1.162428817733243,-616,-2025,112,7,7,7,6,
578,363,5,-9,788,788.0672607421875,0.7459254264831543,0.0,0.3635233127892677,-0.6543517973653917,-616,-2032,-319,7,8,6,6,
579,363,-11,15,788,788.219482421875,1.3496227264404297,0.0,-0.799617395918625,1.090417785361776,-578,-1942,-472,9,7,6,6,
580,363,-14,-76,803,806.7099609375,5.494583606719971,10.432476997375488,-0.9943860840179901,-5.405841681574165,-570,-2028,-309,10,9,10,9,
581,363,-18,-58,789,791.3336791992188,4.398818492889404,0.0,-1.3033856724379596,-4.203205082072403,-418,-2014,649,11,9,10,12,
582,363,-15,1,756,756.1494750976562,1.1365691423416138,0.0,-1.1366708834600323,0.07577311039559087,-532,-2062,725,7,7,8,8,
583,363,-32,35,789,790.4239501953125,3.437126636505127,0.0,-2.3202310444645877,2.537888962032912,-300,-1871,333,8,9,9,8,
584,363,-33,-13,773,773.8132934570312,2.62453556060791,0.0,-2.444173993872563,-0.9626097015401982,-336,-2027,359,6,4,8,9,
585,363,-18,-42,794,795.3137817382812,3.29117488861084,0.0,-1.2968618562770935,-3.0271607744304094,-290,-2240,-200,8,5,9,9,
586,371,-19,11,770,770.3129272460938,1.6305840015411377,0.0,-1.4133609728648826,0.8182064421145797,-433,-2022,-322,6,6,7,6,
587,371,-33,13,762,762.8250122070312,2.662410020828247,0.0,-2.4794034456250476,0.9764771472188353,-454,-1938,-745,7,7,7,5,
588,371,-12,-21,768,768.3807373046875,1.8012276887893677,0.0,-0.8948393001123898,-1.5661001195372286,-572,-1990,-46,12,8,7,8,
589,371,-15,-10,767,767.2118530273438,1.3438304662704468,0.0,-1.120279193533561,-0.7468263567858044,-536,-2164,1480,11,9,8,7,
590,371,-2,-32,762,762.6742553710938,2.4068100452423096,0.0,-0.15024984979669487,-2.404700749871085,-453,-2297,241,9,6,6,7,
591,368,21,19,794,794.5048828125,2.040106773376465,0.0,1.5145929844152008,1.370317075180149,-613,-2017,509,8,10,12,14,
592,368,-12,15,744,744.2479248046875,1.4763810634613037,0.0,-0.9238576406683134,1.1548502038525283,-641,-1873,-40,9,12,9,10,
593,368,-22,23,750,750.675048828125,2.42741060256958,0.0,-1.6794053492321792,1.7557653393951846,-578,-2023,-292,6,10,7,7,
594,368,-4,12,745,745.1073608398438,0.9700852036476135,0.0,-0.3075854925439194,0.9227919395593949,-643,-1803,-152,9,6,7,7,
595,368,6,2,763,763.0261840820312,0.472272664308548,0.0,0.4505457540329465,0.15018054223915656,-643,-1917,-329,10,8,9,10,
596,375,-37,15,801,801.994384765625,2.8509085178375244,0.0,-2.644278588544609,1.0716868095820424,-532,-1897,1772,12,11,9,11,
597,375,-10,-42,820,821.1358032226562,3.011347532272339,0.0,-0.6977797819703503,-2.9318819801877987,-729,-1592,357,12,16,12,11,
598,375,-36,22,726,727.224853515625,3.3233323097229004,0.0,-2.8374874750312227,1.7335758993668606,-608,-2043,182,6,7,9,7,
599,375,-37,9,751,751.9647827148438,2.900080442428589,0.0,-2.8203451982494636,0.6857692744012319,-470,-1756,-558,10,12,8,7,
600,375,-11,19,788,788.3057861328125,1.5932968854904175,0.0,-0.7995298867249153,1.3810950888507274,-708,-1793,-476,8,8,7,8,
601,383,-6,-51,800,801.6464233398438,3.6702136993408203,0.0,-0.42883978973494086,-3.647567525729946,-655,-2079,-266,8,7,7,10,
602,383,-14,-81,816,820.1298828125,5.74988317489624,9.80107593536377,-0.9781132321186733,-5.668049256114163,-599,-1880,-15,12,15,11,11,
603,383,-29,-43,761,762.765380859375,3.8963680267333984,0.0,-2.1788852033537727,-3.231695432315683,-496,-2229,1016,9,13,8,10,
604,383,-37,34,752,753.677001953125,3.8203320503234863,0.0,-2.813932688324315,2.585614122300385,-420,-2011,947,8,10,8,9,
605,378,-31,8,771,771.6644287109375,2.37524676322937,0.0,-2.3023573209522343,0.594007481211535,-284,-2187,358,7,6,6,12,
606,378,-6,-51,809,810.628173828125,3.6294636726379395,0.0,-0.42408817834894785,-3.607098874455047,-475,-2073,-46,9,5,7,8,
607,378,-36,-30,766,767.4320678710938,3.498265504837036,0.0,-2.6887138868192446,-2.2403434871499135,-393,-1958,-919,5,9,7,7,
608,378,-9,15,774,774.1976318359375,1.292083501815796,0.0,-0.6660749115250206,1.1101693125331344,-532,-1997,-1418,5,11,6,7,
609,378,3,-21,756,756.2975463867188,1.604676365852356,0.0,0.22727534542896874,-1.591127749908069,-577,-1941,-295,7,8,6,7,
610,384,-25,-21,770,770.69189453125,2.4254229068756104,0.0,-1.858908622813083,-1.5614025722430849,-559,-2266,690,7,8,9,6,
611,384,-21,-12,755,755.3873291015625,1.8322649002075195,0.0,-1.5930455546588353,-0.9102327503700479,-612,-2037,401,7,11,8,8,
612,384,0,18,771,771.2100830078125,1.334787130355835,0.0,0.0,1.337401709649404,-755,-1952,631,13,13,14,14,
613,384,-2,-10,759,759.0684814453125,0.7671542763710022,0.0,-0.15096356967682234,-0.7548388104928946,-528,-1997,469,8,9,9,8,
614,384,-7,-39,753,754.041748046875,3.00958514213562,0.0,-0.5319018524656737,-2.964733436746112,-342,-2212,-290,10,13,9,11,
615,388,-3,12,757,757.10107421875,0.9334948062896729,0.0,-0.2270341433780601,0.908172224947699,-569,-2152,-668,9,8,8,8,
616,388,-6,19,753,753.2635498046875,1.5131149291992188,0.0,-0.4563851590361747,1.4453576782704127,-556,-2028,-441,9,8,9,9,
617,388,-38,-1,786,786.918701171875,2.7662525177001953,0.0,-2.7678675842575897,-0.07281031293770668,-261,-2005,414,11,11,11,12,
618,388,-51,-54,819,822.3612060546875,5.179573059082031,43.3593864440918,-3.5555677519100453,-3.765011942844629,-166,-2122,1793,10,13,12,13,
619,388,-49,-29,748,750.1640014648438,4.350493431091309,0.0,-3.745172394853217,-2.2155045879245585,-249,-2004,843,14,8,8,5,
620,392,-33,28,758,759.2344970703125,3.2652058601379395,0.0,-2.4911362802522214,2.1135047784263628,-400,-1936,354,14,9,9,7,
621,392,9,54,771,772.941162109375,4.058938026428223,0.0,0.6671577489418458,4.006119427820209,-716,-1978,-694,11,10,10,9,
622,392,-9,36,759,759.9065551757812,2.7964224815368652,0.0,-0.6786019359161316,2.715360618721392,-692,-1441,-649,10,8,12,9,
623,392,-24,-30,780,780.945556640625,2.8172414302825928,0.0,-1.7610897447175706,-2.201557276990176,-600,-1845,1019,11,11,10,9,
624,392,-15,27,794,794.6005249023438,2.2251148223876953,0.0,-1.0816601730144342,1.9472474992170068,-682,-1888,631,8,12,10,7,
625,382,-24,28,747,747.9097290039062,2.823730230331421,0.0,-1.8389047711501478,2.1455219820598073,-477,-1889,72,8,12,7,6,
626,382,-3,-3,732,732.0122680664062,0.3294355273246765,0.0,-0.23481548177782957,-0.23481548177782957,-680,-1725,-42,16,11,12,15,
627,382,-6,2,747,747.0267944335938,0.4824499487876892,0.0,-0.4601955186328873,0.1533970401336832,-469,-2071,-105,11,10,14,15,
628,382,-3,18,718,718.2318725585938,1.453273892402649,0.0,-0.23932082202590574,1.4360711117101754,-598,-1929,78,7,16,9,8,
629,382,-4,21,762,762.2998046875,1.6043757200241089,0.0,-0.3006483365759815,1.5785962338615032,-651,-1905,211,12,15,12,13,
630,404,4,-2,777,777.0128784179688,0.3271268606185913,0.0,0.2949553851774676,-0.14747720404385953,-780,-1674,-71,12,13,11,17,
631,404,-26,-3,737,737.464599609375,2.031247854232788,0.0,-2.0204347423739493,-0.23307941608731905,-594,-1923,32,14,14,14,13,
632,404,-21,-24,750,750.6776733398438,2.4321985244750977,0.0,-1.6030426517959717,-1.8321219445093482,-657,-2181,984,9,13,15,14,
633,404,-27,12,724,724.6026611328125,2.334367036819458,0.0,-2.1354383048905237,0.9489073579624936,-609,-2137,463,14,12,13,15,
634,404,-30,-35,797,798.33203125,3.3076839447021484,0.0,-2.153587936901357,-2.5127330678686985,-777,-1907,-179,10,9,13,14,
635,393,-21,-26,790,790.7066650390625,2.4199106693267822,0.0,-1.5218701769510434,-1.8843383369838544,-623,-2019,89,8,10,13,10,
636,393,-33,-36,799,800.4910888671875,3.4951303005218506,0.0,-2.3626704729854837,-2.577597661930699,-712,-1660,-447,6,11,12,9,
637,393,-21,28,768,768.797119140625,2.6067492961883545,0.0,-1.5652517760771731,2.0872043877227964,-613,-1896,-339,7,10,9,7,
638,393,-12,6,739,739.1217651367188,1.037453293800354,0.0,-0.9302656006250601,0.4651174731136281,-517,-1840,722,9,10,8,7,
639,393,-12,-33,818,818.7532958984375,2.4554288387298584,0.0,-0.8397815981339927,-2.3099424170552494,-648,-1898,373,9,13,9,10,
640,398,-20,-81,823,827.2182006835938,5.786166191101074,13.864789009094238,-1.3853989412467944,-5.619323216712289,-579,-2035,300,8,13,12,11,
641,398,0,12,752,752.0957641601562,0.9115897417068481,0.0,0.0,0.9142167604489942,-611,-1999,-84,12,11,10,12,
642,398,-64,-7,776,778.6661376953125,4.740228652954102,0.0,-4.714563571601772,-0.5150806286016694,-279,-2081,1028,8,7,9,7,
643,398,-21,-31,715,715.979736328125,2.995173215866089,0.0,-1.6807513826902978,-2.48152910638219,-550,-2050,504,8,7,10,7,
644,404,-36,15,718,719.0584106445312,3.1065495014190674,0.0,-2.8697400519196528,1.1953118457111571,-574,-1982,-906,7,6,8,7,
645,404,-3,-4,744,744.0167846679688,0.38240522146224976,0.0,-0.23102677803253682,-0.30803635326057427,-564,-2081,681,10,8,14,13,
646,404,-16,18,774,774.3745727539062,1.7795957326889038,0.0,-1.1839201959281918,1.3319354023248402,-715,-2075,201,11,8,9,12,
647,404,6,-42,822,823.0941772460938,2.9520528316497803,0.0,0.41766511958326286,-2.92490016711771,-737,-1952,-989,12,6,8,9,
648,404,-48,-14,789,790.5827026367188,3.623514413833618,0.0,-3.4808374915925153,-1.0146729070572074,-539,-1987,107,12,11,12,12,
649,409,-42,12,755,756.2625122070312,3.3086061477661133,0.0,-3.1836318826698293,0.9091792735194753,-504,-1935,408,8,8,12,9,
650,409,-39,-47,748,750.4891967773438,4.665292263031006,0.0,-2.9787802695067307,-3.5905448101854143,-411,-1890,54,12,9,9,10,
651,409,-5,-55,777,778.960205078125,4.0630364418029785,0.0,-0.36777342822322734,-4.0488488427516085,-419,-2076,919,13,10,15,15,
652,409,-16,-5,752,752.1868286132812,1.2743654251098633,0.0,-1.2188483019190521,-0.3808641720635562,-559,-2165,333,9,10,7,8,
653,409,-15,12,751,751.24560546875,1.4626041650772095,0.0,-1.1440915886382121,0.9152513721485057,-668,-2020,20,8,8,10,7,
654,409,-18,19,804,804.4259033203125,1.8618814945220947,0.0,-1.282169229616059,1.3534137560329336,-577,-1908,-725,7,8,9,10,
655,409,-29,-58,799,801.6270751953125,4.63737678527832,0.0,-2.073208672929899,-4.149138045598707,-605,-1926,-60,8,8,12,12,
656,409,-24,-45,816,817.5922241210938,3.573782205581665,0.0,-1.6821298863408771,-3.1551348460387367,-741,-1557,-148,9,9,11,12,
657,409,-21,-2,788,788.2822875976562,1.5308533906936646,0.0,-1.5265517444142178,-0.1453688361872515,-605,-2044,436,12,12,14,13,
658,409,-39,12,769,770.081787109375,3.0347962379455566,0.0,-2.9029275314995404,0.8928625118044021,-467,-1879,699,7,7,7,8,
659,406,-18,-24,747,747.6021728515625,2.2972097396850586,0.0,-1.379642470408228,-1.8396616143072781,-579,-2155,24,7,6,8,7,
660,406,24,-54,774,776.2525634765625,4.363409519195557,0.0,1.7717402733759902,-3.989002078688277,-702,-2389,-830,9,7,9,8,
661,406,-8,0,784,784.0408325195312,0.5819892287254333,0.0,-0.5846305207051778,0.0,-565,-1741,225,7,9,10,10,
662,406,-24,6,779,779.3927001953125,1.8163228034973145,0.0,-1.7645996629645915,0.4410845358289929,-534,-1959,417,6,7,6,6,
663,406,-26,-33,724,725.2178955078125,3.318448543548584,0.0,-2.054568117867802,-2.6080628051028047,-545,-2124,-115,9,7,9,8,
664,411,-10,2,767,767.0678100585938,0.7591285705566406,0.0,-0.7469666052926534,0.14938925844126386,-617,-2023,-55,7,5,8,9,
665,411,-35,-7,736,736.864990234375,2.7738752365112305,0.0,-2.722489398833375,-0.5443011944584454,-605,-2451,1968,18,9,10,11,
666,411,-33,40,726,727.8495483398438,4.082960605621338,0.0,-2.598626391044975,3.1503575359665583,-634,-2230,-273,10,9,13,10,
667,411,-36,-35,812,813.5508422851562,3.5357985496520996,0.0,-2.5361927654141057,-2.4656988206481767,-428,-2006,-669,10,8,8,8,
668,411,-11,-4,805,805.0850830078125,0.8303900361061096,0.0,-0.7828653078182669,-0.2846706071104576,-658,-1586,1004,7,7,9,7,
669,415,-60,-79,843,848.8168334960938,6.709074974060059,37.21222686767578,-4.053425865347458,-5.340288676353367,-624,-1563,-1687,11,10,13,10,
670,415,-48,38,797,799.3478393554688,4.389979839324951,0.0,-3.4426224886774883,2.7247968463591383,-266,-1698,-1151,9,10,11,10,
671,415,-27,-11,731,731.5811767578125,2.2813494205474854,0.0,-2.1150591678594326,-0.8615275456071747,-400,-1469,1456,8,8,11,9,
672,415,-25,4,786,786.4076538085938,1.842326045036316,0.0,-1.8217470979885264,0.29143168279534876,-626,-1829,1519,7,6,7,6,
673,415,-15,1,747,747.1512451171875,1.1502914428710938,0.0,-1.1503620308333824,0.07668567258030318,-646,-2304,-161,12,9,10,11,
674,416,-36,0,798,798.8116455078125,2.5804386138916016,0.0,-2.583020668635057,0.0,-588,-2174,252,9,7,9,9,
675,416,-15,-31,721,721.822021484375,2.7320597171783447,0.0,-1.190734780735808,-2.461431796982394,-559,-2480,155,11,7,10,10,
676,416,1,-64,834,836.45263671875,4.386202812194824,0.0,0.06849855114111941,-4.388195009699303,-592,-1810,-1686,9,7,8,8,
677,416,-59,-2,783,785.2222900390625,4.309101104736328,0.0,-4.309149279502115,-0.14593534664292768,-450,-2081,-1030,9,6,10,9,
678,416,2,28,750,750.525146484375,2.1408960819244385,0.0,0.15268201835530784,2.138041887267659,-693,-1729,1221,9,6,12,11,
679,423,-44,-80,729,734.6951904296875,7.136247634887695,28.806324005126953,-3.4334290308525874,-6.251257771994391,-434,-1874,180,10,9,10,7,
680,423,21,-27,786,786.743896484375,2.489252805709839,0.0,1.529537449021895,-1.9667007636719778,-558,-1971,969,5,7,6,8,
681,423,-35,-6,783,783.8048095703125,2.5941131114959717,0.0,-2.5593352599391586,-0.4386015812650611,-895,-1891,183,7,6,8,6,
682,423,-94,-3,749,754.8814697265625,7.154416561126709,88.16932678222656,-7.15320263508051,-0.227701702745292,-394,-1986,-1837,9,10,9,11,
683,423,-28,55,753,755.5249633789062,4.683064937591553,0.0,-2.123886473269258,4.174657243429343,-613,-1949,765,9,7,9,8,
684,429,-21,-24,792,792.6417846679688,2.303220272064209,0.0,-1.5181538434037083,-1.7350951369101384,-536,-1839,-232,8,5,9,9,
685,429,1,-51,756,757.7189331054688,3.857544183731079,0.0,0.07561615887291476,-3.8593407078095154,-684,-2142,541,9,9,10,12,
686,429,-53,-69,808,812.6708984375,6.143477916717529,37.52423858642578,-3.7393157015106566,-4.870574532651135,-492,-1783,509,14,8,13,10,
687,429,-17,9,738,738.2506103515625,1.49041748046875,0.0,-1.3194900319594933,0.6985091038358363,-584,-2386,1033,8,9,11,11,
688,429,-15,5,776,776.1610717773438,1.1646488904953003,0.0,-1.107360621510262,0.36909978053012593,-596,-1907,-125,11,9,9,7,
689,434,-14,4,855,855.1239624023438,0.9729949235916138,0.0,-0.9380824091577601,0.26801254849691136,-856,-1835,-978,11,10,17,11,
690,434,-48,-30,745,747.147216796875,4.342365264892578,0.0,-3.6834677556030395,-2.301200485307753,-400,-2121,-254,8,11,10,11,
691,434,-42,-123,781,791.7410888671875,9.446128845214844,18.848405838012695,-3.0408333554180804,-8.937316685177187,-436,-2155,-740,9,6,11,13,
692,434,-42,3,768,769.1534423828125,3.1356401443481445,0.0,-3.1302210281112393,0.22347657502049795,-559,-1821,-331,20,11,13,13,
693,434,-21,-80,756,760.510986328125,6.241152286529541,14.703424453735352,-1.5823101919801825,-6.038253276295789,-438,-3582,1377,11,13,11,10,
694,427,-7,47,797,798.415283203125,3.409470558166504,0.0,-0.5023395621129637,3.374759131181776,-618,-1842,600,21,11,15,14,
695,427,-12,-19,760,760.3321533203125,1.6910603046417236,0.0,-0.9043125271543724,-1.4319177757056052,-758,-2078,825,21,8,16,11,
696,427,-12,-39,728,729.1426391601562,3.205514907836914,0.0,-0.942998463059228,-3.0660697890105792,-572,-1989,-1036,11,11,5,9,
697,427,-18,-1,774,774.2098999023438,1.3316587209701538,0.0,-1.3322187423762113,-0.07400550416005307,-561,-1994,-6,7,4,8,7,
698,427,-8,6,714,714.0700073242188,0.7997762560844421,0.0,-0.6419199932355382,0.4814355883981282,-622,-2022,-1066,8,9,10,8,
699,433,24,57,735,737.5974731445312,4.807310104370117,0.0,1.8646233985054972,4.432117743402519,-872,-2793,283,13,11,13,10,
700,433,-24,-9,789,789.416259765625,1.8580974340438843,0.0,-1.742186896408529,-0.6532335680426149,-464,-1431,1843,7,8,6,9,
701,433,6,-80,816,819.9341430664062,5.612476348876953,355.7160339355469,0.4192748257634522,-5.599188938271397,-560,-1840,270,22,11,13,12,
702,433,-25,13,795,795.4992065429688,2.0273478031158447,0.0,-1.8009199123661705,0.9363658406790459,-731,-1825,64,11,8,7,6,
703,438,-32,36,732,733.5830078125,3.762150764465332,0.0,-2.5001219184987065,2.812874480517645,-590,-1566,-969,11,7,11,11,
704,438,-39,-23,742,743.380126953125,3.4893109798431396,0.0,-3.007292856158208,-1.7730004285327705,-176,-1896,-883,11,11,11,9,
705,438,-15,-96,810,815.8069458007812,6.837862014770508,8.875612258911133,-1.0535398258327737,-6.757933177561698,-593,-2080,-427,7,9,11,11,
706,438,-21,-16,768,768.45361328125,1.9662294387817383,0.0,-1.5659515598562648,-1.1930436284490296,-629,-3177,328,14,9,8,11,
707,438,-15,39,742,743.1755981445312,3.2206032276153564,0.0,-1.1565167570390902,3.008121133708158,-711,-1880,1508,20,10,15,14,
708,447,-28,-23,750,750.8748168945312,2.7634520530700684,0.0,-2.1370457640278095,-1.7552980172686048,-684,-1956,-509,9,13,9,8,
709,447,-24,12,732,732.4916381835938,2.0967512130737305,0.0,-1.8776253436792487,0.938686636971047,-540,-1952,-486,8,7,8,8,
710,447,-52,46,735,738.2716064453125,5.393507480621338,131.4950408935547,-4.0389599283172695,3.5722816397382986,-647,-1722,556,8,8,9,10,
711,447,-19,-15,720,720.4067993164062,1.9230408668518066,0.0,-1.5112933562953679,-1.1930742037870985,-408,-2482,-466,10,8,10,9,
712,447,-69,-32,786,789.6714477539062,5.524664878845215,65.11624145507812,-5.012789579026425,-2.322443228103385,-267,-2138,103,7,7,8,13,
713,445,9,-32,700,700.788818359375,2.716240406036377,0.0,0.7358510315452729,-2.617197353636254,-591,-2052,-39,5,6,8,6,
714,445,-31,13,758,758.7449951171875,2.5366830825805664,0.0,-2.3415820265304914,0.981728466032293,-516,-2527,-37,8,6,6,6,
715,445,-27,27,696,697.046630859375,3.137634515762329,0.0,-2.2198990648283683,2.2198990648283683,-432,-2080,868,13,9,13,8,
716,445,-37,-3,774,774.8896484375,2.7432546615600586,0.0,-2.736841528383065,-0.22182224732956846,-343,-2027,-517,15,14,11,11,
717,445,-45,-47,790,792.6752319335938,4.706083297729492,0.0,-3.254418624678505,-3.3992257631095413,-500,-2040,227,6,9,7,10,
718,450,-22,-10,772,772.378173828125,1.7903536558151245,0.0,-1.6322026479304206,-0.7418306778373893,-656,-1267,606,5,5,7,7,
719,450,-43,-84,835,840.3154296875,6.445374011993408,27.10361671447754,-2.9331783580418835,-5.737009018585278,-441,-2370,-419,7,6,8,8,
720,450,-7,32,758,758.7074584960938,2.4718899726867676,0.0,-0.5286308247236992,2.417280814903688,-640,-1729,-305,11,15,13,10,
721,450,-4,9,781,781.0620727539062,0.7198606729507446,0.0,-0.29342624693255503,0.6602207802953978,-674,-1226,670,9,10,14,12,
722,450,-6,-6,809,809.0444946289062,0.5982933640480042,0.0,-0.4249183192898089,-0.4249183192898089,-775,-1638,336,7,9,10,11,
723,445,5,-57,768,770.1285400390625,4.2583513259887695,0.0,0.3719910217754683,-4.244549172043881,-644,-1932,327,6,7,6,8,
724,445,-43,-1,792,793.1670532226562,3.105982542037964,0.0,-3.1077020802570123,-0.07223672905950525,-712,-2528,-168,12,13,8,8,
725,445,-42,-9,760,761.2128295898438,3.232221841812134,0.0,-3.1629069283569713,-0.6774373707496131,-313,-1799,-738,7,9,9,7,
726,445,-31,19,749,749.8820190429688,2.7766005992889404,0.0,-2.369273410053616,1.4518768773525819,-411,-1423,-504,8,9,10,11,
727,445,-52,-63,750,754.435546875,6.213564395904541,39.532005310058594,-3.952285440132108,-4.790127516829794,-584,-2608,796,22,12,15,15,
728,450,13,3,741,741.1201171875,1.0288676023483276,0.0,1.0050777698505955,0.2319297619500208,-683,-1998,412,7,6,8,8,
729,450,-33,0,709,709.767578125,2.6623008251190186,0.0,-2.664876057511277,0.0,-573,-2157,892,12,8,11,11,
730,450,-26,-26,723,723.9343872070312,2.9088096618652344,0.0,-2.058212357730652,-2.058212357730652,-541,-2793,-489,15,11,9,7,
731,450,-14,30,805,805.6804809570312,2.3523924350738525,0.0,-0.9956568739687623,2.133936372797421,-531,-2176,-642,15,6,11,6,
732,450,-21,-6,786,786.3034057617188,1.5890415906906128,0.0,-1.5303946145507716,-0.43720785584251287,-602,-2278,151,7,7,8,10,
733,468,-3,5,759,759.0223999023438,0.4375196397304535,0.0,-0.2264594386523265,0.3774341448191399,-618,-1835,258,13,7,11,12,
734,468,-15,0,786,786.1431274414062,1.090675711631775,0.0,-1.0932981939939885,0.0,-688,-1597,324,9,8,10,9,
735,468,2,-17,783,783.1870727539062,1.2497282028198242,0.0,0.14631457376130866,-1.2437702070670602,-560,-1980,-363,10,10,10,12,
736,468,-18,18,754,754.4295654296875,1.931032419204712,0.0,-1.3671546338476717,1.3671546338476717,-552,-2104,82,9,12,9,8,
737,468,-17,32,699,699.9385986328125,2.964921236038208,0.0,-1.391727908403976,2.6203788940077897,-207,-2212,582,22,13,12,12,
738,472,-40,-33,792,793.69580078125,3.7435038089752197,0.0,-2.8887673242452894,-2.3829103573179604,-420,-1906,111,9,11,8,7,
739,472,-45,-135,825,837.1828002929688,9.784164428710938,18.4301815032959,-3.0812306842402153,-9.2797547533034,-493,-2006,469,6,6,9,13,
740,472,-42,-14,795,796.2317504882812,3.1848256587982178,0.0,-3.023667515246046,-1.007473326460487,-507,-1429,-388,10,10,14,16,
741,472,-8,18,719,719.269775390625,1.5666719675064087,0.0,-0.6372792340441608,1.433998416817401,-576,-1979,234,9,11,12,13,
742,472,-17,7,774,774.2183227539062,1.3580719232559204,0.0,-1.2581806946679919,0.5180398256318645,-498,-844,5,15,12,14,11,
743,457,-19,-62,762,764.7542114257812,4.8616251945495605,0.0,-1.42363627632866,-4.6501754612778825,-607,-2614,-318,15,8,11,10,
744,457,-8,21,742,742.3402099609375,1.7321245670318604,0.0,-0.6174730904088549,1.6210517475457378,-621,-1834,435,15,16,14,12,
745,457,-20,5,805,805.263916015625,1.464373230934143,0.0,-1.4231774059796458,0.3557600521339434,-577,-2330,-271,13,12,10,11,
746,457,1,-3,766,766.0065307617188,0.23388519883155823,0.0,0.07479805163406607,-0.2243946648063442,-669,-2011,-69,14,12,12,16,
747,466,3,-58,827,829.0368041992188,4.014567852020264,0.0,0.20733424094854394,-4.011730362549964,-488,-2458,408,11,10,13,8,
748,466,-15,-3,774,774.151123046875,1.1296021938323975,0.0,-1.110236005726224,-0.22203386146504167,-605,-1930,862,10,8,11,11,
749,466,-24,-24,729,729.7896728515625,2.663100004196167,0.0,-1.8845794876108646,-1.8845794876108646,-613,-2179,-204,7,11,11,10,
750,466,-15,-2,794,794.1441650390625,1.0892345905303955,0.0,-1.0822817959113789,-0.1442958106397021,-592,-2073,-551,21,16,20,20,
751,466,-32,-5,782,782.67041015625,2.3690927028656006,0.0,-2.3432291249806627,-0.3660299861741522,-605,-1981,250,19,17,15,19,
752,464,-26,-22,794,794.7301635742188,2.4536256790161133,0.0,-1.8747950430447047,-1.5862846106355688,-443,-1860,297,14,15,19,20,
753,464,-7,-13,747,747.1458740234375,1.129711389541626,0.0,-0.5368112477989615,-0.9969708981523555,-602,-1893,-347,11,15,14,16,
754,464,-12,-18,741,741.3157348632812,1.6696537733078003,0.0,-0.9275122108853496,-1.3913442917683259,-520,-2134,369,9,10,12,14,
755,464,-24,18,697,697.6453247070312,2.4619996547698975,0.0,-1.9714459935651965,1.4784568213390998,-537,-2263,631,9,8,10,12,
756,464,-33,-41,763,764.8130493164062,3.943402051925659,0.0,-2.4729545346305457,-3.0729778676736244,-538,-1922,116,6,7,8,8,
757,475,-16,24,770,770.5401000976562,2.1427197456359863,0.0,-1.1898127019673232,1.784879459047925,-498,-1894,-3,10,10,10,11,
758,475,-13,9,729,729.1714477539062,1.239885687828064,0.0,-1.0215493220489116,0.7072069418288249,-472,-1997,-851,13,11,13,12,
759,475,-34,-36,763,764.6051025390625,3.710663318634033,0.0,-2.548634589305552,-2.6986621435290576,-363,-2009,-442,12,12,13,16,
760,475,-13,-39,788,789.0715942382812,2.983820915222168,0.0,-0.9439939632915716,-2.8330080008816543,-541,-2380,346,10,9,9,10,
761,475,-7,9,769,769.0845336914062,0.846817135810852,0.0,-0.521497941438855,0.6705033995078271,-571,-2072,412,8,8,7,8,
762,466,-23,15,762,762.4945678710938,2.061192274093628,0.0,-1.728540591912087,1.1272107984436854,-546,-2055,330,6,7,6,7,
763,466,-9,-42,768,769.2002563476562,3.1986026763916016,0.0,-0.6704025288938658,-3.1300303748457767,-537,-2021,552,10,7,7,8,
764,466,-31,-9,750,750.6943359375,2.4619107246398926,0.0,-2.366708070327921,-0.6869298705663813,-542,-2188,-378,9,11,8,8,
765,466,3,-32,750,750.6883544921875,2.4512553215026855,0.0,0.2289735759046509,-2.443118591315063,-589,-2207,-745,13,14,9,9,
766,466,-20,37,777,778.1375122070312,3.0958666801452637,0.0,-1.4728011003114787,2.725409646526315,-483,-1965,-79,9,8,10,10,
767,486,-27,13,761,761.5897827148438,2.252436399459839,0.0,-2.0316846652334286,0.9780610564534319,-484,-1777,208,9,5,9,10,
768,486,-9,-82,819,823.1439819335938,5.749138832092285,6.258370876312256,-0.6264667025176628,-5.717176708765676,-648,-1948,1140,7,7,7,11,
769,486,0,-18,786,786.2060546875,1.3092687129974365,0.0,0.0,-1.3118877825041106,-542,-1757,1266,9,9,7,5,
770,486,-5,0,742,742.016845703125,0.3834434449672699,0.0,-0.38608431474488597,0.0,-707,-2306,671,9,7,8,9,
771,486,-12,27,754,754.5786743164062,2.2414803504943848,0.0,-0.9112082632577629,2.050569891543194,-596,-2016,-247,7,13,12,8,
772,477,-35,-42,794,795.8800048828125,3.9364078044891357,0.0,-2.5204794369503962,-3.025005048557317,-495,-1940,-1022,8,13,7,9,
773,477,-52,-103,820,828.077880859375,8.007067680358887,26.782602310180664,-3.600316050848806,-7.145209002936747,-557,-2124,-381,10,7,8,10,
774,477,0,-54,814,815.7891845703125,3.7928466796875,0.0,0.0,-3.7953873660968145,-719,-1904,143,9,9,10,12,
775,477,15,9,767,767.199462890625,1.3038932085037231,0.0,1.1202972771443973,0.6721509535025115,-776,-2090,1052,7,9,8,8,
776,477,-16,-69,748,751.3461303710938,5.406915664672852,13.05031967163086,-1.2202122861875553,-5.269191955107458,-609,-2165,175,10,11,9,7,
777,485,-27,17,715,715.7115478515625,2.5524885654449463,0.0,-2.1619788717610806,1.3610509505004043,-469,-2251,64,8,14,9,6,
778,485,-14,45,736,737.5072631835938,3.6612112522125244,0.0,-1.0877032797730455,3.4981520115119857,-553,-2047,567,8,11,10,9,
779,485,7,9,787,787.0825805664062,0.827391505241394,0.0,0.5095726295970251,0.6551704503243164,-617,-2023,-1022,11,13,13,10,
780,485,-15,-17,725,725.3543701171875,1.7885162830352783,0.0,-1.1849352047782586,-1.3429538012381714,-476,-2056,-377,9,12,13,10,
781,485,-34,-26,729,730.2554321289062,3.357600450515747,0.0,-2.668601852389216,-2.0403890320509848,-468,-1982,290,9,10,16,11,
782,493,-15,-3,732,732.1597900390625,1.1945523023605347,0.0,-1.1739196882866503,-0.23476816829839503,-600,-2502,1269,14,10,12,9,
783,493,-31,63,753,756.2664794921875,5.32467794418335,153.7991180419922,-2.349260441961116,4.7785035226287285,-511,-2062,1291,9,9,8,8,
784,493,-12,-9,791,791.1422119140625,1.0837633609771729,0.0,-0.8690924462390207,-0.6518083986156337,-505,-1999,-513,10,11,10,10,
785,493,-5,-52,810,811.6828002929688,3.687556028366089,0.0,-0.3529466219962272,-3.6731371619136257,-578,-1944,-117,8,9,11,8,
786,485,-15,-93,816,821.4194946289062,6.582815170288086,9.15731143951416,-1.0463404658124114,-6.5008896469273605,-501,-2212,-1153,12,9,9,9,
787,485,-15,46,762,763.5345458984375,3.630624771118164,0.0,-1.12567531027825,3.453940429889335,-665,-2146,78,8,18,10,7,
788,485,-11,-6,700,700.1121215820312,1.0228568315505981,0.0,-0.9002550844748503,-0.49103403400823276,-575,-2069,336,9,12,14,12,
789,485,-3,-30,791,791.5744018554688,2.1802256107330322,0.0,-0.2171466816516648,-2.1719817828262,-545,-1845,893,9,12,13,12,
790,485,12,-32,812,812.7188720703125,2.4075000286102295,0.0,0.8460174169010142,-2.256547780893883,-761,-1699,492,11,11,8,10,
791,489,-15,-6,749,749.1741943359375,1.2330279350280762,0.0,-1.1472553531514278,-0.45887638238681105,-498,-2025,25,7,6,9,8,
792,489,-13,-12,743,743.2106323242188,1.3614119291305542,0.0,-1.0022503959915874,-0.9251472314871555,-523,-1823,-493,10,9,12,11,
793,489,2,6,774,774.0258178710938,0.46552422642707825,0.0,0.14804633219070293,0.44414295041385027,-608,-1852,-306,11,12,16,18,
794,489,-22,1,786,786.3084716796875,1.6023266315460205,0.0,-1.6032787677788423,0.07286681704072782,-595,-2086,-376,13,14,13,13,
795,489,-31,-13,763,763.7401123046875,2.5200648307800293,0.0,-2.3262588281134438,-0.9753070026941422,-586,-1969,191,10,9,12,10,
796,487,1,-53,811,812.7305908203125,3.7371652126312256,0.0,0.07049789338820175,-3.739040738828532,-769,-1753,699,8,12,11,11,
797,487,-15,-21,756,756.4403686523438,1.9525071382522583,0.0,-1.136233715318577,-1.590827327684778,-561,-1965,609,6,8,8,7,
798,487,-17,-31,758,758.8240966796875,2.667929172515869,0.0,-1.2837095708565789,-2.341337884315481,-557,-2316,521,10,10,8,11,
799,487,-26,10,765,765.5070190429688,2.0828583240509033,0.0,-1.9463921132762576,0.7484896623717757,-474,-1947,-429,11,15,13,13,
800,487,-15,4,796,796.1513671875,1.1146572828292847,0.0,-1.079552936217908,0.28786496085816604,-599,-2064,-651,10,8,9,11,
801,487,-2,-48,792,793.4557495117188,3.4686763286590576,0.0,-0.1444210125719016,-3.4682182276864677,-510,-2159,-109,6,9,7,10,
802,487,-6,-69,796,799.0075073242188,4.970303535461426,0.0,-0.43025616660191945,-4.954070015233154,-581,-1949,400,12,9,11,16,
803,487,-20,-21,785,785.5354614257812,2.1131033897399902,0.0,-1.4589276349600278,-1.5318909891191355,-445,-2166,726,15,11,13,17,
804,487,-17,18,783,783.391357421875,1.8085156679153442,0.0,-1.2434458469738876,1.316602239360933,-510,-2116,360,10,13,15,13,
805,487,-16,-27,791,791.6223754882812,2.2695600986480713,0.0,-1.1581214948805592,-1.9545760307039763,-566,-2013,606,9,12,11,9,
806,504,-26,-18,765,765.6533203125,2.3645026683807373,0.0,-1.94602007075787,-1.3471097607647964,-545,-1869,-508,8,10,9,9,
807,504,12,-39,792,793.0504150390625,2.9467456340789795,0.0,0.8670010876354844,-2.8187829375591638,-596,-2025,-849,9,9,10,7,
808,504,-19,-5,769,769.2509155273438,1.460896611213684,0.0,-1.4153125844921894,-0.3724154264805348,-594,-2236,-291,8,6,8,9,
809,504,-14,5,757,757.1459350585938,1.122416615486145,0.0,-1.0594874361651772,0.37836955636725583,-684,-1936,68,9,12,8,8,
810,504,-11,2,762,762.08203125,0.8379718065261841,0.0,-0.8270441342971796,0.1503666115627935,-632,-2140,842,13,12,13,11,
811,498,-7,-36,779,779.86279296875,2.6928396224975586,0.0,-0.514290254619285,-2.6458260379060765,-505,-1827,924,14,12,15,15,
812,498,16,-1,743,743.1729125976562,1.2334240674972534,0.0,1.2336338858564522,-0.07709618406642507,-500,-1847,24,13,16,17,18,
813,498,-3,33,745,745.736572265625,2.544142007827759,0.0,-0.23049400284173835,2.5362554014349117,-543,-1911,-204,13,8,11,11,
814,498,-13,6,747,747.13720703125,1.0954365730285645,0.0,-0.9969825082646436,0.4601274985678511,-472,-1780,-709,8,8,9,8,
815,498,-19,5,779,779.2477416992188,1.442119836807251,0.0,-1.3971522597923738,0.367637733368817,-508,-2205,-792,7,12,10,10,
816,510,-30,20,777,777.8361206054688,2.6542410850524902,0.0,-2.2103625882726914,1.4733719507538507,-449,-1997,230,9,10,12,13,
817,510,-28,48,741,743.0807495117188,4.286219596862793,0.0,-2.159471513591899,3.7036534920628386,-505,-1818,516,11,6,8,10,
818,510,-21,-29,781,781.8203125,2.6223156452178955,0.0,-1.5391722123842808,-2.1257555477535326,-513,-1702,1009,10,12,13,12,
819,510,-18,-22,747,747.5406494140625,2.176612138748169,0.0,-1.3797560553766783,-1.686449030001624,-435,-2414,89,9,10,11,8,
820,510,9,-24,752,752.4367065429688,1.9495768547058105,0.0,0.6853391209936267,-1.8278374325941977,-783,-2129,569,13,12,11,13,
821,516,-30,42,765,766.7391967773438,3.857311725616455,0.0,-2.242369060948136,3.1400870173693445,-642,-1841,-79,11,15,12,14,
822,516,-24,2,750,750.3865966796875,1.8365886211395264,0.0,-1.8328329936589123,0.1527102159495508,-449,-1986,-119,6,6,8,9,
823,516,-5,-48,785,786.4820556640625,3.5154097080230713,0.0,-0.36425603207317936,-3.4990088433380078,-837,-1727,184,8,13,10,13,
824,516,12,-92,795,800.3955078125,6.654049396514893,352.5736999511719,0.8590441737879333,-6.600347254447677,-794,-1444,102,13,12,12,11,
825,522,-8,44,774,775.2908935546875,3.3042893409729004,0.0,-0.5912288701835104,3.253449175794137,-511,-1894,1500,9,15,12,13,
826,522,9,-27,777,777.5210571289062,2.095139265060425,0.0,0.6632277343824611,-1.9900388636445778,-725,-1987,-161,10,12,13,12,
827,522,-1,17,774,774.1873168945312,1.257788062095642,0.0,-0.07400766490680345,1.2582310822224594,-765,-1863,90,10,10,13,12,
828,522,-25,-25,783,783.7977905273438,2.5827813148498535,0.0,-1.8278151127844122,-1.8278151127844122,-668,-1749,-900,10,14,10,11,
829,522,-4,17,779,779.1957397460938,1.2816671133041382,0.0,-0.2941290784010091,1.2501422836022962,-673,-1963,-593,12,13,12,10,
830,523,-31,18,761,761.8438110351562,2.6943490505218506,0.0,-2.3320523683585574,1.3538470567356138,-634,-1885,710,9,12,11,11,
831,523,-18,11,761,761.2922973632812,1.5852302312850952,0.0,-1.3548279904116316,0.8279020931088796,-594,-2101,180,9,14,9,9,
832,523,-6,2,762,762.0262451171875,0.4729010760784149,0.0,-0.45113699293476567,0.15037761644982214,-684,-2078,71,5,9,8,7,
833,523,-26,15,792,792.568603515625,2.1678693294525146,0.0,-1.8799099135622652,1.0844335715228353,-650,-2113,303,9,9,10,13,
834,523,-4,12,765,765.1045532226562,0.9446625113487244,0.0,-0.29954619494893764,0.8986713380390428,-628,-1929,-176,7,7,9,10,
835,523,2,-27,751,751.4878540039062,2.0620598793029785,0.0,0.15248642164322948,-2.0590074104321716,-673,-2018,327,7,6,6,8,
836,523,-32,-5,778,778.6738891601562,2.3812711238861084,0.0,-2.3552625471767703,-0.36790866665687005,-428,-2089,-89,7,8,7,8,
837,523,-28,0,774,774.5062866210938,2.0692179203033447,0.0,-2.071812072047243,0.0,-568,-2139,-517,6,8,5,7,
838,523,-21,9,780,780.3345336914062,1.6751863956451416,0.0,-1.5421035255964497,0.6608363719122433,-473,-2008,55,9,12,13,14,
839,523,-47,-38,773,775.3592529296875,4.468276500701904,0.0,-3.4752322108151454,-2.8091650448618815,-256,-2013,698,7,9,7,10,
840,537,-47,-41,802,804.4215087890625,4.444302082061768,0.0,-3.3495325866807257,-2.921534469827755,-479,-2013,-21,11,13,10,10,
841,537,-36,-13,769,769.9519653320312,2.846851110458374,0.0,-2.6799079490814974,-0.9674376836466205,-358,-1935,-373,6,8,8,11,
842,537,-12,24,761,761.472900390625,2.016815185546875,0.0,-0.902957678570252,1.8061397173024905,-363,-1863,-177,6,8,7,8,
843,537,-12,27,773,773.564453125,2.186372756958008,0.0,-0.8888424340147565,2.0002215284001954,-652,-2026,-35,8,10,9,9,
844,537,-15,-31,781,781.7589111328125,2.5222504138946533,0.0,-1.0994302985719315,-2.2726123779083705,-473,-1780,362,7,8,6,9,
845,541,-9,2,767,767.055419921875,0.686043381690979,0.0,-0.6722771812339733,0.14939167049501556,-491,-1855,888,10,12,12,13,
846,541,16,27,739,739.6661376953125,2.4292616844177246,0.0,1.2394835033850486,2.0919300187324033,-571,-1647,360,10,11,11,10,
847,541,-18,-27,757,757.6951904296875,2.451986312866211,0.0,-1.3612611992552548,-2.0421320498784823,-347,-1916,48,8,11,13,11,
848,541,-10,6,732,732.0928955078125,0.9101075530052185,0.0,-0.7826542525068008,0.4695832049045949,-557,-2097,29,8,13,12,10,
849,541,-7,9,754,754.086181640625,0.8637155294418335,0.0,-0.5318705153089394,0.6838399339282684,-552,-2129,352,7,10,8,10,
850,558,-15,33,778,778.843994140625,2.66506028175354,0.0,-1.1035455307303936,2.428377028645332,-596,-2057,432,6,9,5,6,
851,558,-26,-6,753,753.47265625,2.0268900394439697,0.0,-1.9774919584544546,-0.45625852613743395,-556,-1927,164,8,10,9,7,
852,558,16,-52,734,736.0136108398438,4.236623764038086,0.0,1.2456355530760637,-4.051371864531803,-978,-1871,652,6,13,12,8,
853,558,-11,-21,756,756.37158203125,1.7934819459915161,0.0,-0.8332885475026013,-1.5909719541780951,-763,-2131,-65,12,10,8,10,
854,558,-13,8,758,758.1536865234375,1.15102219581604,0.0,-0.9824942610856523,0.6045934427905757,-716,-2109,108,6,6,5,7,
855,563,-7,22,783,783.3402709960938,1.686272144317627,0.0,-0.5120071097824669,1.6093553983313245,-958,-1782,85,6,7,5,5,
856,563,2,-36,813,813.7991333007812,2.5367515087127686,0.0,0.14081076303722992,-2.5354185726654577,-783,-1677,-652,6,16,10,11,
857,563,-14,-60,827,829.2918701171875,4.258146286010742,0.0,-0.9673060254913215,-4.14902548818619,-663,-1969,1058,7,10,9,8,
858,563,-45,10,754,755.4078369140625,3.496018409729004,0.0,-3.415158419816049,0.7584969374426123,-557,-1891,1157,5,9,9,8,
859,563,-4,39,756,757.015869140625,2.9660141468048096,0.0,-0.3027468763676735,2.9530755916551734,-705,-1907,25,6,10,7,6,
860,553,-12,-21,795,795.3678588867188,1.7400000095367432,0.0,-0.8644747839120456,-1.512949291507412,-769,-2280,-953,5,8,8,6,
861,553,12,-81,813,817.1132202148438,5.74885892868042,351.5780944824219,0.841467328544296,-5.68904373602209,-463,-2132,-965,8,9,7,8,
862,553,-76,-36,785,789.4916381835938,6.1121673583984375,64.65042114257812,-5.524102829349256,-2.613534467720447,-597,-1775,771,10,10,8,10,
863,553,-39,19,707,708.3297119140625,3.5087571144104004,0.0,-3.156250351178688,1.5370672148453086,-424,-1592,48,13,10,12,11,
864,561,-23,18,747,747.5707397460938,2.236419200897217,0.0,-1.7630584748873612,1.3797004940067086,-459,-1646,488,9,10,10,10,
865,561,-45,-22,752,753.6663818359375,3.8082354068756104,0.0,-3.423059073455051,-1.672737801106987,-524,-2131,427,7,13,11,9,
866,561,-19,11,742,742.32470703125,1.6921803951263428,0.0,-1.466660975810419,0.8490578578494928,-637,-1876,-19,10,12,7,6,
867,561,15,-26,759,759.5933227539062,2.2621424198150635,0.0,1.1315167555199126,-1.9615513815747208,-671,-1919,-246,10,16,7,6,
868,561,-6,-41,810,811.0592041015625,2.925926685333252,0.0,-0.42386279512051395,-2.8976043429945246,-783,-2015,-518,8,13,7,7,
869,576,3,-48,765,766.51025390625,3.5947585105895996,0.0,0.22424719306079624,-3.5902950674208887,-614,-2195,229,7,9,7,8,
870,576,3,7,714,714.0405883789062,0.6084774732589722,0.0,0.24072558424011054,0.5617003747430669,-716,-2066,346,7,10,9,9,
871,576,6,11,738,738.1063842773438,0.9700646996498108,0.0,0.465757350783432,0.8539106830568848,-569,-2120,874,8,10,13,13,
872,576,-17,-37,804,805.0304565429688,2.8966925144195557,0.0,-1.2100171836460312,-2.6342990630376453,-565,-2046,1281,7,7,6,8,
873,576,4,-42,825,826.0780639648438,2.924956798553467,0.0,0.2774362596416328,-2.914325840066164,-799,-1805,-40,8,7,5,6,
874,552,-18,19,742,742.46142578125,2.0175528526306152,0.0,-1.3891968266365577,1.466390839602226,-614,-1653,-710,11,8,8,9,
875,552,14,-39,759,760.1302490234375,3.1223275661468506,0.0,1.055327383992844,-2.9409656126489634,-802,-2208,-351,5,6,7,7,
876,552,-9,44,773,774.3035278320312,3.3225674629211426,0.0,-0.6659838020211966,3.2576022927761756,-543,-2048,-666,9,6,10,8,
877,552,18,-36,803,804.008056640625,2.86689829826355,0.0,1.282835612036582,-2.566314872937199,-898,-1792,484,7,6,8,8,
878,552,6,-102,848,854.1334838867188,6.868045806884766,356.6387634277344,0.4024868628765813,-6.858588430291481,-850,-1647,830,10,8,8,6,
879,550,-21,-69,790,793.2855834960938,5.213991165161133,16.922700881958008,-1.516921504361408,-4.989893810779759,-563,-1684,610,6,11,10,12,
880,550,-24,11,778,778.4478149414062,1.9409364461898804,0.0,-1.7667422530635948,0.8096554954350996,-553,-1754,622,7,9,9,7,
881,550,-9,-5,752,752.0704956054688,0.781757652759552,0.0,-0.6856728738912208,-0.38092308815176573,-517,-2069,-79,5,9,8,10,
882,550,-1,-7,774,774.0322875976562,0.5207821130752563,0.0,-0.07402248655620516,-0.5181643249952204,-615,-2139,-606,8,7,7,6,
883,550,-24,-47,791,792.7584838867188,3.814396381378174,0.0,-1.734839662173423,-3.398868346408607,-667,-1897,-1114,12,10,12,10,
884,562,-45,-25,726,727.82275390625,4.053323745727539,0.0,-3.544757977718774,-1.968441144336648,-509,-1858,1305,5,6,8,9,
885,562,-42,-8,753,754.2128295898438,3.2471871376037598,0.0,-3.1922928288380605,-0.6077526271263223,-506,-1741,464,9,8,14,11,
886,562,-9,-24,771,771.4259643554688,1.901504635810852,0.0,-0.6684681954417443,-1.7828290957557869,-577,-2008,217,10,9,10,9,
887,562,-17,13,742,742.3085327148438,1.6494699716567993,0.0,-1.3122756031899707,1.0034684391794961,-743,-2274,851,7,7,7,9,
888,562,-15,6,722,722.1807250976562,1.2792218923568726,0.0,-1.190143228123061,0.47602853418327395,-642,-2161,-518,5,6,9,9,
889,545,-12,-99,822,828.0271606445312,6.9148406982421875,6.906124114990234,-0.8303754341462327,-6.866784272102071,-799,-2048,-1423,9,9,10,7,
890,545,-13,-25,780,780.5087890625,2.0663561820983887,0.0,-0.9543512751858413,-1.8355199993269335,-808,-1783,351,8,6,8,10,
891,545,0,-21,756,756.2916259765625,1.5885292291641235,0.0,0.0,-1.5911402711945875,-599,-2268,1152,6,7,7,10,
892,545,-15,-1,735,735.1537475585938,1.1691159009933472,0.0,-1.1691382461237203,-0.07793716497788399,-656,-2261,214,6,7,10,7,
893,545,-24,21,783,783.649169921875,2.329694986343384,0.0,-1.755012112581894,1.5355793017747383,-564,-2057,959,6,10,11,11,
894,565,-7,-41,789,790.0955810546875,3.0150699615478516,0.0,-0.5076293578581944,-2.9745547829917216,-664,-1850,609,11,6,9,8,
895,565,-17,-21,795,795.458984375,1.943880319595337,0.0,-1.2245790518459887,-1.5127758901010036,-472,-1776,-817,8,9,9,7,
896,565,-66,9,753,755.9404907226562,5.05275297164917,97.76274108886719,-5.00878364148977,0.6821624405346998,-611,-2026,124,8,5,7,7,
897,565,-44,-9,786,787.2820434570312,3.2676920890808105,0.0,-3.2038436640484704,-0.6550044659484844,-412,-1769,-1457,8,6,7,9,
898,565,-27,-19,746,746.730224609375,2.5314579010009766,0.0,-2.072131695491223,-1.4580062528127995,-548,-1948,-914,7,7,11,11,
899,551,-6,-76,770,773.7648315429688,5.651846885681152,4.508807182312012,-0.44429277795017497,-5.636740311552196,-646,-2566,1670,12,10,9,8,
900,551,9,-6,736,736.0794677734375,0.8393583297729492,0.0,0.7005695435397771,-0.467039896843434,-692,-2188,409,10,14,8,6,
901,551,-20,24,771,771.6326904296875,2.3177759647369385,0.0,-1.4852195297908217,1.7823512942755475,-715,-1989,424,6,7,7,8,
902,551,-7,0,774,774.0316772460938,0.5155227184295654,0.0,-0.518164757441067,0.0,-750,-1555,294,9,7,6,6,
903,551,-15,-18,806,806.3405151367188,1.6625365018844604,0.0,-1.0659098364492632,-1.2791242742194138,-626,-1736,-861,11,11,11,9,
904,555,-23,15,751,751.5018310546875,2.0913963317871094,0.0,-1.7538330476261697,1.1437015001139148,-432,-1955,-821,6,8,8,9,
905,555,-37,7,724,724.9786376953125,2.9747912883758545,0.0,-2.925417599652287,0.5532255399046092,-454,-1893,-571,10,5,8,7,
906,555,-23,-32,704,705.1021118164062,3.201369047164917,0.0,-1.86928488605882,-2.601176286466193,-641,-2202,995,9,7,11,15,
907,555,-16,-30,752,752.7682495117188,2.586155652999878,0.0,-1.2179067628435118,-2.2840080862996373,-420,-2413,1000,7,7,12,12,
908,555,-35,-57,786,788.8409423828125,4.86159086227417,0.0,-2.542985241526844,-4.143684732947873,-475,-2511,437,9,7,9,8,
909,548,17,24,744,744.5811157226562,2.261179208755493,0.0,1.3082697216103931,1.8471284720575367,-1096,-1999,-416,10,10,10,8,
910,548,-30,-15,804,804.6993408203125,2.386277914047241,0.0,-2.136539394857954,-1.0680840002945937,-1050,-1898,-952,6,6,10,10,
911,548,-10,-36,847,847.8236694335938,2.5232272148132324,0.0,-0.6758139591976872,-2.4336055087578043,-532,-2216,-155,8,5,15,12,
912,548,2,-33,782,782.6985473632812,2.418264627456665,0.0,0.14640589996600906,-2.416410991442451,-676,-2172,-304,6,8,10,9,
913,548,-32,-40,792,793.6548461914062,3.69807505607605,0.0,-2.3107804502867144,-2.8889164970407966,-598,-2123,698,7,6,10,7,
914,559,-14,0,712,712.1376342773438,1.1238373517990112,0.0,-1.1264572468869243,0.0,-589,-1841,1002,7,5,8,7,
915,559,14,-17,744,744.3258666992188,1.692877173423767,0.0,1.077737923829499,-1.3087183902739572,-763,-2160,117,9,10,10,9,
916,559,-6,47,766,767.4639892578125,3.5370075702667236,0.0,-0.44794045919800823,3.511028159667582,-737,-1793,715,11,7,8,7,
917,559,15,34,738,738.93505859375,2.88010835647583,0.0,1.1631546433970668,2.6372338835333795,-825,-1837,-318,6,8,9,9,
918,559,-18,-14,781,781.3328247070312,1.669831395149231,0.0,-1.320071590015687,-1.0266864582692257,-897,-1991,-343,9,7,10,7,
919,558,-16,-33,827,827.8128051757812,2.5366010665893555,0.0,-1.1074841810709093,-2.2846492692590994,-766,-1756,-284,5,7,9,10,
920,558,-14,11,786,786.2015991210938,1.2950273752212524,0.0,-1.020327716124428,0.8016698474152781,-715,-1856,-735,7,8,11,9,
921,558,-21,44,758,759.5663452148438,3.677645206451416,0.0,-1.584278646177831,3.3208770384850834,-588,-2015,507,11,7,9,8,
922,558,1,-69,771,774.08203125,5.112040996551514,359.17498779296875,0.07401773030685632,-5.114009552678262,-647,-2200,689,12,6,9,9,
923,558,-6,-12,812,812.11083984375,0.9439657926559448,0.0,-0.4233139024734014,-0.8466509140887201,-801,-1799,109,9,10,10,10,
924,570,-45,-23,782,783.6312866210938,3.6950764656066895,0.0,-3.2920191751389964,-1.6819034946985674,-598,-1932,-109,7,10,9,9,
925,570,-18,29,774,774.752197265625,2.522428035736084,0.0,-1.331286069412926,2.1451579205253477,-619,-2009,-565,6,5,6,8,
926,570,-18,-30,753,753.8123168945312,2.65757417678833,0.0,-1.3682743698173265,-2.2808428915693892,-565,-2007,-230,8,7,7,9,
927,570,-27,-26,725,725.9683227539062,2.957052707672119,0.0,-2.1314193286144234,-2.0524434378859358,-653,-2089,-181,10,7,10,9,
928,566,-13,-8,729,729.1597900390625,1.1969088315963745,0.0,-1.0215656554036563,-0.6286350928092633,-412,-2212,33,9,7,8,8,
929,566,-12,-43,763,764.304931640625,3.3459956645965576,0.0,-0.8996116513634812,-3.2251788951143654,-538,-2792,984,12,7,11,12,
930,566,-15,-22,706,706.501953125,2.1573164463043213,0.0,-1.2165589614723553,-1.784440871186443,-505,-2373,535,12,9,11,11,
931,566,-23,-22,771,771.6566772460938,2.3612992763519287,0.0,-1.708011086256679,-1.6337291441822872,-467,-1741,-458,10,14,8,8,
932,566,-25,-8,759,759.4537353515625,1.9780937433242798,0.0,-1.8864260101135772,-0.6035584297522552,-594,-2387,-51,13,6,7,9,
933,584,-9,21,762,762.3424682617188,1.7148027420043945,0.0,-0.6764335367635101,1.5785079306967031,-554,-2258,-184,10,9,8,13,
934,584,-19,22,770,770.5485229492188,2.1593997478485107,0.0,-1.4129287734100135,1.6360793070492372,-473,-2255,299,9,8,8,11,
935,584,-3,-121,906,914.0492553710938,7.606950283050537,1.4149953126907349,-0.18805075369125424,-7.6070289419933035,-588,-2670,24,15,7,11,10,
936,584,-30,34,747,748.3748779296875,3.471060037612915,0.0,-2.297423475585658,2.603945238314216,-630,-2124,473,12,7,10,10,
937,584,-6,36,771,771.8633422851562,2.7075932025909424,0.0,-0.4453873192388768,2.673266804254895,-642,-1705,202,14,7,12,11,
938,568,-15,12,778,778.2371215820312,1.41177237033844,0.0,-1.1044062324258772,0.8835052879955627,-522,-1732,-395,8,7,6,6,
939,568,-13,-68,820,822.9173583984375,4.823450088500977,0.0,-0.9051651400987271,-4.739917663784669,-685,-2409,-168,6,8,9,9,
940,568,-20,-19,828,828.4594116210938,1.9056028127670288,0.0,-1.3833229567033607,-1.314144358201071,-736,-2271,311,8,6,9,9,
941,568,-31,-136,887,897.90087890625,8.934669494628906,12.835749626159668,-1.97852818830032,-8.711799001240204,-391,-2238,672,12,8,7,9,
942,568,-24,-9,752,752.4367065429688,1.9495768547058105,0.0,-1.8278374325941977,-0.6853391209936267,-570,-2242,-942,11,7,8,8,
943,573,-28,-6,757,757.5414428710938,2.163750648498535,0.0,-2.1182305002769772,-0.4538078886393327,-471,-1350,165,5,8,8,8,
944,573,-33,-110,789,797.3142700195312,8.279150009155273,16.694429397583008,-2.372089783489449,-7.930000748965232,-346,-2344,137,11,7,7,7,
945,573,-9,-20,771,771.3118896484375,1.6267794370651245,0.0,-0.6685670714637667,-1.485837422208905,-610,-2062,-319,9,9,8,7,
946,573,-42,39,754,756.1752319335938,4.34442138671875,0.0,-3.1839997101422135,2.9563613141915464,-592,-2100,546,9,7,10,9,
947,573,-31,-19,757,757.8726806640625,2.7472777366638184,0.0,-2.3442787669837024,-1.436565674261757,-585,-2148,471,10,5,6,6,
948,595,-23,-6,760,760.3716430664062,1.788796305656433,0.0,-1.7333681774405414,-0.4521187217697209,-581,-2131,-115,7,7,6,6,
949,595,-35,-5,749,749.833984375,2.6999704837799072,0.0,-2.6753671318448458,-0.3820592659626274,-551,-2138,-758,5,4,6,5,
950,595,-30,-65,822,825.1115112304688,4.974900245666504,0.0,-2.0836605812427087,-4.518284413741009,-476,-2732,78,22,10,16,11,
951,595,-25,-70,829,832.32568359375,5.121084213256836,19.649091720581055,-1.7212132562294349,-4.824370916054468,-663,-2049,679,7,7,10,9,
952,595,-2,6,861,861.0232543945312,0.4182237982749939,0.0,-0.1330877707834248,0.39926618470816794,-1070,-1290,-231,9,6,9,13,
953,584,-41,33,731,732.8922119140625,4.1155619621276855,0.0,-3.206957229185056,2.5807344748178203,-460,-2111,752,8,10,10,9,
954,584,-24,-27,760,760.8580932617188,2.71879506111145,0.0,-1.8075997363323302,-2.033639354634988,-395,-2298,-238,8,4,6,7,
955,584,-71,38,773,777.183349609375,5.94502067565918,118.15436553955078,-5.241594588306777,2.8025664657635505,-131,-1854,-288,16,13,8,11,
956,584,-3,-39,807,807.9473876953125,2.7723724842071533,0.0,-0.2127461932171979,-2.7667693131206925,-681,-1716,1112,9,13,8,9,
957,584,18,-76,804,807.7846069335938,5.545948505401611,346.6803894042969,1.2768371265775817,-5.398628624055197,-729,-2373,-1441,9,9,10,9,
958,573,-12,1,755,755.0960083007812,0.91111159324646,0.0,-0.9105839253553772,0.07587882165251324,-577,-1934,-515,8,9,11,10,
959,573,-21,-14,742,742.4291381835938,1.9455469846725464,0.0,-1.6208575817610196,-1.0804916407390035,-523,-2119,693,8,8,9,10,
