step,tof,accX,accY,accZ,acc,incl,orient,roll,pitch,gyroX,gyroY,gyroZ,mic0,mic1,mic2,mic3,
0,26,-23,-8,768,768.385986328125,1.813515543937683,0.0,-1.7152835231788965,-0.5965420179043828,-545,-1992,127,7,8,8,8,
1,26,-20,-6,766,766.2845458984375,1.5588444471359253,0.0,-1.4955876934098233,-0.44862994209371865,-611,-1966,90,4,6,5,5,
2,26,-20,-6,766,766.2845458984375,1.5588444471359253,0.0,-1.4955876934098233,-0.44862994209371865,-528,-1955,115,8,8,10,9,
3,28,-22,-7,768,768.346923828125,1.7192424535751343,0.0,-1.640768518900755,-0.5219985802847563,-580,-1980,96,15,14,15,14,
4,28,-18,-3,763,763.2182006835938,1.3674362897872925,0.0,-1.3514086548144635,-0.22521447240080208,-611,-2008,133,10,12,14,12,
5,28,19,-3,772,772.2396240234375,1.424688696861267,0.0,1.4098340363400417,-0.22258347132172746,-494,-2497,-275,10,9,9,10,
6,28,40,27,420,422.7635192871094,6.552310943603516,235.9822998046875,5.429192283389244,3.6617151746481156,-1470,-1437,352,45,22,11,13,
7,28,-53,-3,814,815.7291259765625,3.7287023067474365,0.0,-3.725276961004954,-0.21071667229018531,-626,-2391,-1182,87,70,51,58,
8,24,-6,23,775,775.3644409179688,1.7541457414627075,0.0,-0.44337616559933696,1.6998410220176963,-482,-1796,381,16,11,13,19,
9,24,-40,30,746,747.6737060546875,3.831923246383667,0.0,-3.0667466056896835,2.2995791932625513,-660,-1052,852,11,10,12,11,
10,24,-42,-18,774,775.34765625,3.3760902881622314,0.0,-3.1051891586176614,-1.3302634948198568,-477,-1872,-822,12,14,9,12,
11,24,-30,-87,727,732.8014526367188,7.211962699890137,19.02086067199707,-2.346275141855507,-6.818378357205071,-739,-2344,658,14,11,12,12,
12,24,-18,21,742,742.5153198242188,2.132166862487793,0.0,-1.3890960142728301,1.62066936640324,-514,-1799,940,17,14,12,13,
13,25,-36,-18,771,772.0498657226562,2.985781192779541,0.0,-2.672620433431192,-1.3359467156873228,-507,-2077,47,10,9,10,10,
14,25,-30,23,758,758.9420166015625,2.852452039718628,0.0,-2.26541852802593,1.736634262543508,-470,-1974,-889,11,12,10,10,
15,25,-12,-9,760,760.1480102539062,1.1280653476715088,0.0,-0.9045316227916388,-0.6783863878608554,-633,-2067,-920,11,9,9,13,
16,25,-10,-18,770,770.2752685546875,1.5292209386825562,0.0,-0.7438560072896733,-1.3390250871426677,-532,-2095,-675,10,9,9,11,
17,34,-10,41,732,733.2155151367188,3.297055959701538,0.0,-0.7814558516505573,3.205541671624616,-529,-2224,507,11,14,13,15,
18,34,-18,27,750,750.70166015625,2.474868059158325,0.0,-1.3739450939140798,2.061164672949706,-644,-2029,959,11,7,10,11,
19,34,-26,-17,777,777.6207275390625,2.2868752479553223,0.0,-1.9160599872569668,-1.2526747506281797,-409,-1903,840,8,7,9,11,
20,34,-20,-48,813,814.6612548828125,3.6571404933929443,0.0,-1.4067573346834068,-3.3778347355274176,-476,-1532,-203,11,11,10,8,
21,34,-12,23,744,744.4521484375,1.9944183826446533,0.0,-0.9236042023595905,1.7704464507046436,-581,-2067,-866,11,10,7,8,
22,31,-20,21,757,757.5552978515625,2.191283941268921,0.0,-1.5128252436378922,1.5884854300418205,-611,-2152,-576,8,8,11,8,
23,31,-14,29,785,785.6602172851562,2.3464977741241455,0.0,-1.0210308953906588,2.115361167268123,-687,-1783,-312,9,11,11,13,
24,31,-20,-30,786,786.8265380859375,2.623859405517578,0.0,-1.4565332615115882,-2.1850942234193433,-668,-1787,779,12,10,8,12,
25,31,-35,-51,822,824.323974609375,4.300808906555176,0.0,-2.4334550343706574,-3.5470910327002905,-562,-2081,1307,9,10,10,10,
26,31,-21,3,752,752.2991333007812,1.6132211685180664,0.0,-1.5995866757201878,0.22848330454121651,-542,-1986,30,7,6,8,6,
27,30,-12,40,717,718.2151489257812,3.3308322429656982,0.0,-0.9573473195255497,3.192661187112389,-501,-1604,39,12,9,8,10,
28,30,-15,-12,753,753.2449951171875,1.4587109088897705,0.0,-1.141054409600226,-0.912821802868063,-552,-2006,-79,10,10,12,13,
29,30,-45,-52,789,791.9911499023438,4.978691101074219,0.0,-3.257232549756298,-3.7645941878934384,-578,-2092,-177,12,11,10,9,
30,30,-39,-4,733,734.0476684570312,3.0589895248413086,0.0,-3.045562390718231,-0.312219843212883,-567,-2135,-616,7,9,6,5,
31,30,-36,6,744,744.8946533203125,2.8057937622070312,0.0,-2.7701258594433518,0.46151278817907215,-460,-1877,-344,9,6,6,7,
32,26,-20,-4,724,724.2872314453125,1.6110695600509644,0.0,-1.5823297854849958,-0.3164273395109463,-565,-1779,1356,10,9,9,7,
33,26,-11,-6,768,768.1022338867188,0.9320740699768066,0.0,-0.8205615273080298,-0.4475682666757174,-569,-2015,674,6,7,8,7,
34,26,-18,-5,742,742.2351684570312,1.4396336078643799,0.0,-1.389620478375954,-0.3859707654111454,-512,-2157,-183,12,15,12,12,
35,26,-13,28,783,783.6083374023438,2.2551958560943604,0.0,-0.9505760532591294,2.0477365642444054,-589,-1848,145,10,14,13,14,
36,26,-29,1,801,801.525390625,2.0721073150634766,0.0,-2.0734717773323115,0.0714834400739953,-777,-1728,-289,10,9,6,11,
37,33,-4,-11,765,765.0895385742188,0.873940646648407,0.0,-0.2995520798181136,-0.8237928493812013,-467,-2156,-776,10,12,12,18,
38,33,-8,4,761,761.0525512695312,0.6707501411437988,0.0,-0.6022904351231206,0.301141057922472,-515,-2078,-141,10,14,13,14,
39,33,-21,25,736,736.7238159179688,2.5374481678009033,0.0,-1.6334131180406835,1.9446493772096263,-512,-2124,1020,12,15,17,14,
40,33,-33,15,778,778.843994140625,2.66506028175354,0.0,-2.428377028645332,1.1035455307303936,-492,-1919,1236,11,15,16,14,
41,33,-36,-78,824,828.466064453125,5.949446678161621,24.770559310913086,-2.4905036667641864,-5.402393646590486,-394,-1865,43,5,9,8,9,
42,36,-34,-39,788,789.69677734375,3.754077434539795,0.0,-2.467603909473123,-2.8307633961434786,-436,-2132,-152,11,18,12,11,
43,36,-30,16,738,738.7827758789062,2.635197877883911,0.0,-2.3272688096541647,1.2409657781475327,-633,-2068,-461,10,17,10,14,
44,36,-23,29,747,747.9164428710938,2.83408522605896,0.0,-1.7622432855384027,2.222165674353702,-535,-1975,-353,9,7,7,8,
45,36,-19,-15,801,801.36572265625,1.7284361124038696,0.0,-1.3585830002843666,-1.0725276572073075,-664,-1736,459,10,11,8,7,
46,36,-36,-78,829,833.4392700195312,5.913798809051514,24.770559310913086,-2.475633322977479,-5.370062061289236,-428,-1612,-12,11,9,7,9,
47,36,0,-45,784,785.2904052734375,3.2825002670288086,0.0,0.0,-3.2850564102140125,-636,-1786,739,9,11,8,11,
48,36,0,-11,802,802.075439453125,0.783171534538269,0.0,0.0,-0.7858030646533039,-679,-2085,-254,8,8,11,9,
49,36,-18,-3,710,710.2344970703125,1.469666838645935,0.0,-1.4522450166916185,-0.24201564038215728,-590,-1920,452,12,8,10,8,
50,36,-15,-84,765,769.744140625,6.362043380737305,10.119658470153809,-1.1165932694908713,-6.265003447641431,-529,-2377,-911,10,6,10,7,
51,36,-13,37,734,735.0469360351562,3.0558202266693115,0.0,-1.0133828626582622,2.8853125032411002,-530,-2057,623,11,12,11,13,
52,42,-21,67,777,780.166015625,5.1610283851623535,162.59678649902344,-1.5424367396026821,4.9265817929029385,-431,-2176,352,9,9,6,10,
53,42,-11,-8,781,781.118408203125,0.9951049089431763,0.0,-0.8068871305980805,-0.5868178662043341,-467,-1808,290,10,13,13,10,
54,42,-7,-117,825,833.2844848632812,8.083581924438477,3.4186630249023438,-0.4813184340003707,-8.071469657514198,-636,-1769,-180,15,11,11,7,
55,42,-51,14,681,683.050537109375,4.438168048858643,0.0,-4.281977077822117,1.1744330387321784,-389,-2226,207,9,7,9,9,
56,44,-11,39,792,793.0359497070312,2.9263365268707275,0.0,-0.794760685550226,2.8188345221933027,-492,-2157,425,10,8,8,6,
57,44,-17,15,783,783.3281860351562,1.6559178829193115,0.0,-1.2435461687661782,1.097227539641344,-598,-1895,989,7,9,8,6,
58,44,-22,-24,795,795.6663818359375,2.342536211013794,0.0,-1.5844175855005305,-1.7284974372784032,-593,-1768,-227,7,9,9,7,
59,44,-1,-69,804,806.9559936523438,4.903160572052002,0.0,-0.07100237628694762,-4.9051523652749776,-549,-1761,407,5,11,9,9,
60,44,-3,34,735,735.7921142578125,2.656228542327881,0.0,-0.23360921797240738,2.6485069073025858,-608,-1871,-1226,11,12,10,11,
61,40,-20,-18,748,748.4838256835938,2.05757212638855,0.0,-1.5311647305302851,-1.378017085604171,-475,-1837,814,8,13,8,11,
62,40,-37,-19,760,761.1373291015625,3.129998207092285,0.0,-2.7863299337471408,-1.43040275626807,-368,-1937,163,9,7,9,10,
63,40,-18,-49,777,778.7515869140625,3.841007709503174,0.0,-1.3244479125700943,-3.607503529619422,-491,-2137,-95,6,8,9,10,
64,40,-23,6,761,761.3711547851562,1.7864398956298828,0.0,-1.7310919552759252,0.45152517758539756,-569,-1923,-276,6,6,7,6,
65,40,-12,-14,774,774.2196044921875,1.3620882034301758,0.0,-0.8880902519222965,-1.0361202776805052,-605,-2199,-17,4,4,6,8,
66,43,-21,-12,751,751.389404296875,1.8420324325561523,0.0,-1.6015239182549983,-0.9150762615165755,-525,-1922,761,6,6,6,7,
67,43,-29,3,717,717.592529296875,2.325897216796875,0.0,-2.316119823629355,0.23953405113209605,-470,-2390,509,7,7,5,6,
68,43,-20,16,735,735.4461059570312,1.9931752681732178,0.0,-1.558315207463396,1.2465968260718254,-519,-2379,-619,6,8,8,9,
69,43,-7,-19,780,780.2627563476562,1.4844273328781128,0.0,-0.5140266189967927,-1.3953343120804669,-557,-2030,308,10,13,13,15,
70,43,-12,-27,764,764.5711059570312,2.212137222290039,0.0,-0.8992983985435494,-2.023759095375188,-558,-2111,-250,11,12,13,15,
71,43,-10,-5,765,765.0816650390625,0.8346795439720154,0.0,-0.7489057887084746,-0.3744448974673658,-629,-2043,173,13,13,14,15,
72,43,-18,-7,762,762.2446899414062,1.449264407157898,0.0,-1.3531348813235995,-0.5261776017576252,-543,-2179,596,9,12,12,14,
73,43,-15,23,765,765.49267578125,2.053105115890503,0.0,-1.1227954967354539,1.721768698205259,-412,-1881,308,15,15,12,13,
74,43,-14,0,760,760.12890625,1.0527056455612183,0.0,-1.0553292106684,0.0,-532,-2075,-113,13,12,13,12,
75,43,-22,-23,720,720.703125,2.528534412384033,0.0,-1.749268099539862,-1.8288067114196132,-521,-2089,-64,11,10,12,12,
76,49,-5,-7,771,771.0479736328125,0.6366050243377686,0.0,-0.371547439076242,-0.5201699146480768,-529,-2259,-83,14,15,16,15,
77,49,-12,5,778,778.1085815429688,0.9546689987182617,0.0,-0.8836512121849218,0.36817594299578477,-568,-2012,-85,13,14,13,13,
78,49,-21,30,765,765.8759765625,2.738015651702881,0.0,-1.5712233292551367,2.244897762429364,-507,-2039,449,9,17,12,12,
79,49,-34,-31,764,765.3842163085938,3.443847894668579,0.0,-2.5460386050524404,-2.3212591855500735,-548,-1904,571,11,9,12,12,
80,49,-25,-33,759,760.1282958984375,3.1196024417877197,0.0,-1.884751416771533,-2.4882052372669468,-458,-2110,166,14,13,12,10,
81,52,-28,18,756,756.732421875,2.5185210704803467,0.0,-2.1204959830523777,1.362993367158763,-446,-2047,51,13,14,14,13,
82,52,-16,23,762,762.514892578125,2.1031582355499268,0.0,-1.2023368147720397,1.7284944970880793,-600,-1939,67,14,14,17,17,
83,52,-4,-39,801,801.9588623046875,2.7995097637176514,0.0,-0.285780333760804,-2.787446140932625,-514,-1956,-315,19,19,23,19,
84,52,-15,-53,781,782.9400024414062,4.031698703765869,0.0,-1.0977716147231273,-3.8815240483141578,-460,-2037,271,15,14,16,16,
85,52,-34,-33,747,748.5011596679688,3.6267998218536377,0.0,-2.603505682128209,-2.5268815465922416,-455,-2136,230,18,19,16,16,
86,52,-11,4,765,765.0895385742188,0.873940646648407,0.0,-0.8237928493812013,0.2995520798181136,-504,-1871,862,10,15,14,15,
87,52,-3,-15,762,762.1535034179688,1.1474294662475586,0.0,-0.22552907797151042,-1.1277152883386117,-706,-2105,750,10,11,6,7,
88,52,-39,-10,776,777.0437622070312,2.9674758911132812,0.0,-2.8768967007773245,-0.7373762503025059,-596,-2187,374,12,10,14,16,
89,52,-23,-3,755,755.356201171875,1.757062315940857,0.0,-1.7448809388579127,-0.2275585859439247,-532,-2154,-97,9,8,9,8,
90,60,-16,23,782,782.5017700195312,2.0493483543395996,0.0,-1.1716221148258492,1.6843320051113435,-668,-1890,-993,9,9,10,7,
91,60,-40,23,734,735.4488525390625,3.5944716930389404,0.0,-3.1177730812802538,1.7921271404664532,-404,-2168,-173,9,7,9,7,
92,60,-19,-24,745,745.6286010742188,2.350254535675049,0.0,-1.4601608166157327,-1.8445326181544515,-393,-2156,1034,7,10,8,11,
93,60,-27,24,754,754.8648681640625,2.74042010307312,0.0,-2.049792110080898,1.8219558266683686,-603,-1992,1036,7,9,11,14,
94,60,-36,39,764,765.8413696289062,3.9714407920837402,0.0,-2.694302678282637,2.919014858460709,-471,-1996,1065,10,8,10,11,
95,61,-21,-24,798,798.636962890625,2.285905361175537,0.0,-1.506754784470402,-1.7220662506535933,-595,-1864,-252,8,18,14,9,
96,61,-7,-12,804,804.1199951171875,0.987297773361206,0.0,-0.49877569808183353,-0.8550649936267758,-570,-1605,-80,12,16,11,12,
97,61,9,-64,791,793.6359252929688,4.66853666305542,0.0,0.6497602298630637,-4.625440668885088,-591,-1608,-606,11,10,8,9,
98,61,3,10,729,729.0747680664062,0.8178699612617493,0.0,0.2357615898191146,0.7858943912814682,-645,-1878,-179,10,5,9,11,
99,61,-12,17,801,801.270263671875,1.485499620437622,0.0,-0.8581063198307788,1.2156963899896593,-637,-1884,454,8,14,11,12,
100,62,-48,24,785,786.832275390625,3.908334970474243,0.0,-3.4974495098844156,1.7479100690646436,-583,-1888,844,12,18,15,14,
101,62,-15,-73,825,828.3591918945312,5.1592183113098145,11.606512069702148,-1.0375736103802948,-5.05580744131511,-566,-1876,886,10,8,7,7,
102,62,25,-61,813,815.66845703125,4.633312702178955,0.0,1.7563740155778869,-4.288885636226073,-650,-1893,-283,8,12,13,15,
103,62,-16,4,744,744.1828002929688,1.2672618627548218,0.0,-1.231959603312929,0.307967652377255,-555,-2130,-730,9,11,13,10,
104,62,3,-21,780,780.2883911132812,1.55524480342865,0.0,0.22028747345697605,-1.5421947262135727,-718,-2056,-619,12,12,11,10,
105,68,-20,0,753,753.2655639648438,1.5188319683074951,0.0,-1.521442549604117,0.0,-449,-2483,-504,9,10,10,9,
106,68,-36,-44,771,773.0931396484375,4.214616298675537,0.0,-2.669011188698045,-3.2627081865652796,-370,-2009,1090,9,10,11,12,
107,68,-9,-11,735,735.1373901367188,1.1051629781723022,0.0,-0.7014673670011241,-0.8573595818200334,-632,-2299,1314,8,9,9,9,
108,68,26,-28,753,753.9688110351562,2.902334451675415,0.0,1.976190006984174,-2.1282720749641433,-838,-1970,691,6,6,5,7,
109,68,-10,14,767,767.1929321289062,1.2823774814605713,0.0,-0.7468447559331285,1.0456110868859467,-565,-2133,-180,7,7,8,6,
110,71,-30,-11,753,753.6776733398438,2.427267074584961,0.0,-2.281250629297242,-0.8362672723927079,-545,-2156,-818,8,7,8,8,
111,71,-17,36,746,747.0615844726562,3.0522615909576416,0.0,-1.3039250903109714,2.7620844933755593,-511,-1981,-880,7,12,7,7,
112,71,-33,6,768,768.7320556640625,2.4981186389923096,0.0,-2.4603395484010986,0.44720154090767805,-377,-1861,-609,8,6,6,7,
113,71,-14,-46,795,796.4527587890625,3.458601474761963,0.0,-1.0071937303112162,-3.311022933075185,-766,-1717,311,7,10,8,8,
114,71,-15,21,731,731.4553833007812,2.019315242767334,0.0,-1.1750503772433636,1.6451812731655377,-494,-2118,1098,6,9,8,8,
115,72,-16,-21,759,759.4590454101562,1.9895551204681396,0.0,-1.2071754743281995,-1.5845025494995688,-879,-1909,1627,9,11,8,8,
116,72,-39,-30,783,784.54443359375,3.5931875705718994,0.0,-2.8493691038972817,-2.1914533242233594,-441,-1893,1021,6,9,6,7,
117,72,-60,-48,813,816.6229248046875,5.396553993225098,51.336395263671875,-4.213508122789083,-3.3697113153509886,-426,-1940,-828,18,17,13,13,
118,72,-27,-3,759,759.4860229492188,2.04726505279541,0.0,-2.0373147960091473,-0.2263212003583539,-503,-1783,-1625,6,12,7,8,
119,72,6,-14,773,773.1500244140625,1.1262142658233643,0.0,0.44464606545930263,-1.0375537778531598,-502,-1949,-1277,7,11,7,8,
120,78,-27,-57,742,744.67578125,4.856058597564697,0.0,-2.0778508680641767,-4.389906399211678,-448,-2087,946,5,14,11,10,
121,78,-32,8,776,776.7007446289062,2.4313790798187256,0.0,-2.3612493253133895,0.5901556835754158,-747,-1799,1914,8,12,7,9,
122,78,-6,29,739,739.5931396484375,2.2922165393829346,0.0,-0.464821039366659,2.2471864660152736,-551,-2105,1280,11,10,9,11,
123,78,2,11,756,756.0826416015625,0.844645082950592,0.0,0.15155974022085905,0.8336070082828682,-440,-1713,102,18,18,14,16,
124,78,-27,-44,738,739.8033447265625,3.998823881149292,0.0,-2.091541855972716,-3.4096938445522693,-413,-1978,-767,34,42,38,38,
125,80,-15,15,735,735.3060302734375,1.6505765914916992,0.0,-1.1688960022212869,1.1688960022212869,-488,-1982,-151,38,41,43,42,
126,80,-1,8,748,748.04345703125,0.6148980259895325,0.0,-0.07659420951635237,0.612765174709228,-488,-2152,84,17,21,17,19,
127,80,-9,12,759,759.148193359375,1.129561185836792,0.0,-0.679279870681031,0.905722998262585,-393,-2097,-315,13,18,14,13,
128,80,3,-48,832,833.3888549804688,3.305737257003784,0.0,0.2062515075797774,-3.3018442574135007,-709,-1959,480,21,18,17,15,
129,80,0,-39,828,828.91796875,2.6941440105438232,0.0,0.0,-2.6967211637706354,-439,-1931,957,10,12,13,11,
130,81,12,-64,807,809.6227416992188,4.610574245452881,0.0,0.8492529750346602,-4.533913637043207,-726,-2094,513,17,13,14,14,
131,81,-9,3,747,747.0602416992188,0.724976658821106,0.0,-0.690271631809224,0.23008559639105425,-610,-2147,317,10,12,12,11,
132,81,-3,41,769,770.0980224609375,3.0574731826782227,0.0,-0.2232024535761297,3.0518687273297997,-696,-1843,-550,11,13,9,15,
133,81,13,3,803,803.11083984375,0.9492388367652893,0.0,0.9274905034335099,0.2140274200873851,-805,-1801,-1140,9,12,8,8,
134,86,-8,-12,779,779.1334838867188,1.058012843132019,0.0,-0.5883129074585616,-0.8824887465519163,-537,-2029,-301,12,15,9,8,
135,86,-28,11,757,757.5975341796875,2.273153066635132,0.0,-2.1180735727812077,0.8319400555105139,-658,-1683,1749,8,7,10,10,
136,86,-9,-27,732,732.5530395507812,2.2239742279052734,0.0,-0.7039421581930769,-2.11225176735232,-486,-1966,20,10,9,11,10,
137,86,-11,-1,716,716.085205078125,0.8811740279197693,0.0,-0.8801723209017676,-0.08001254445542867,-523,-1971,38,10,11,15,13,
138,86,6,0,774,774.0232543945312,0.44150176644325256,0.0,0.4441444331119283,0.0,-652,-1863,571,7,8,8,7,
139,87,-66,0,770,772.8234252929688,4.896583080291748,0.0,-4.899092453787765,0.0,-565,-1950,7,14,16,13,16,
140,87,9,26,775,775.4882202148438,2.0306332111358643,0.0,0.6649663655783917,1.9213308887303064,-700,-2181,-512,15,14,15,17,
141,87,-27,-49,752,754.0782470703125,4.252251625061035,0.0,-2.0519313371258066,-3.7257044658391623,-393,-2005,-263,22,23,30,25,
142,87,-12,-35,724,724.94482421875,2.922982692718506,0.0,-0.9484594304134093,-2.767289428397215,-595,-2118,1020,16,16,20,17,
143,87,27,-15,762,762.625732421875,2.318568229675293,0.0,2.028923691274629,-1.127016944072238,-711,-1986,1319,16,17,18,16,
144,92,-30,22,766,766.90283203125,2.777912139892578,0.0,-2.2418902785380115,1.6438589045480791,-574,-2034,630,13,21,22,19,
145,92,-16,-1,780,780.1647338867188,1.1748056411743164,0.0,-1.175132271754269,-0.07344063795553928,-723,-1933,155,11,12,13,17,
146,92,-18,-9,782,782.2589111328125,1.4715588092803955,0.0,-1.3185085543875341,-0.6592106358634321,-768,-1575,-980,9,11,11,10,
147,92,9,-31,795,795.6550903320312,2.322564125061035,0.0,0.6481112584565724,-2.232900786405665,-572,-1843,-649,7,11,9,10,
148,92,-17,13,756,756.3028564453125,1.6188971996307373,0.0,-1.2879897153144442,0.9848988636101984,-508,-2279,665,8,12,11,10,
149,96,-9,25,789,789.447265625,1.926189661026001,0.0,-0.653207886821411,1.8147304486121132,-630,-2026,279,7,15,12,15,
150,96,-9,-48,816,817.4600830078125,3.4224345684051514,0.0,-0.6308227637825128,-3.366256391481269,-774,-2035,295,14,16,13,14,
151,96,-27,0,795,795.4583740234375,1.942548394203186,0.0,-1.94514676141429,0.0,-637,-1254,-179,15,13,17,13,
152,96,-30,5,749,749.6172485351562,2.3226802349090576,0.0,-2.2936139526481174,0.382169737051079,-469,-1934,-525,15,19,19,17,
153,96,-51,-11,759,760.791015625,3.929720878601074,0.0,-3.843733138988626,-0.8284476373194193,-375,-1956,278,15,16,19,22,
154,98,-23,-30,767,767.9309692382812,2.8190035820007324,0.0,-1.7163000994371613,-2.238887252725053,-415,-2229,489,15,18,25,16,
155,98,-8,-25,807,807.4267578125,1.8603651523590088,0.0,-0.5676969715600617,-1.7743075851401557,-610,-1761,-144,11,14,14,14,
156,98,-24,-33,765,766.0874633789062,3.050649642944336,0.0,-1.7952568156953903,-2.4688381381041182,-595,-1800,-937,15,17,17,18,
157,98,-40,-26,767,768.4822998046875,3.5566654205322266,0.0,-2.983630718995188,-1.9388535960927928,-415,-1910,167,11,14,19,14,
158,98,-35,-21,758,759.09814453125,3.0797128677368164,0.0,-2.6426931633717654,-1.5852560008844627,-257,-1596,-183,12,17,18,16,
159,100,-10,15,752,752.216064453125,1.370680809020996,0.0,-0.7617155549529863,1.1426154106261004,-581,-1910,487,9,10,12,11,
160,100,-10,-4,750,750.0773315429688,0.8201034665107727,0.0,-0.7638875981154669,-0.3055474354084949,-652,-2147,900,11,10,11,8,
161,100,-18,51,783,784.8656005859375,3.94870924949646,0.0,-1.3141287722194661,3.725663373406931,-630,-1902,-173,16,13,13,14,
162,100,-6,-64,792,794.6043090820312,4.637574672698975,0.0,-0.43264042520266116,-4.6197914876410175,-665,-1928,-180,12,9,13,13,
163,100,-16,-39,761,762.1666259765625,3.168016195297241,0.0,-1.2028862991815767,-2.9331009073026766,-599,-1963,114,15,15,18,20,
164,104,-15,-7,747,747.183349609375,1.2668042182922363,0.0,-1.1503125702687222,-0.536784323225447,-591,-2183,25,17,15,16,14,
165,104,-18,14,754,754.3447265625,1.7296861410140991,0.0,-1.3673084195279068,1.0634222219420033,-761,-2054,1305,12,11,10,12,
166,104,-21,11,784,784.3583374023438,1.7293719053268433,0.0,-1.534190570404911,0.8035539455504879,-718,-2035,232,15,18,21,23,
167,104,-20,-45,807,808.5010986328125,3.4893860816955566,0.0,-1.417477993336438,-3.190648976751195,-651,-1722,444,12,14,17,19,
168,104,-15,-54,830,831.8900146484375,3.860412836074829,0.0,-1.0331693528553494,-3.7218249612366265,-689,-1865,-426,9,9,11,11,
169,108,-23,2,770,770.3460083007812,1.7147685289382935,0.0,-1.710917885405344,0.14875352616886303,-671,-1911,-582,8,10,12,10,
170,108,-9,-17,732,732.252685546875,1.5026507377624512,0.0,-0.7042309404488662,-1.3303000257877322,-660,-1869,502,11,10,12,10,
171,108,3,6,782,782.0287475585938,0.4888432025909424,0.0,0.2197972329393782,0.43959770056813285,-854,-1879,-503,15,13,13,15,
172,108,-50,-53,820,823.2308349609375,5.075300216674805,43.3276252746582,-3.4820771037524842,-3.691283033058254,-595,-1914,-618,14,14,14,19,
173,110,-14,21,740,740.4302978515625,1.9508063793182373,0.0,-1.0834088471548422,1.625234367175121,-698,-1780,515,25,30,32,30,
174,110,-27,0,753,753.48388671875,2.0509536266326904,0.0,-2.053550563510988,0.0,-521,-1949,-160,19,19,19,20,
175,110,-18,-26,733,733.6818237304688,2.467716693878174,0.0,-1.4058240286513959,-2.0308561844033655,-471,-1931,596,17,19,20,21,
176,110,-26,5,771,771.4544677734375,1.9641871452331543,0.0,-1.9313808950910032,0.371351666556331,-694,-2178,1009,14,19,17,16,
177,110,-7,-24,777,777.402099609375,1.8402564525604248,0.0,-0.5159181905973476,-1.7691195602712095,-843,-2280,-71,25,18,23,15,
178,112,-20,41,767,768.3554077148438,3.401150941848755,0.0,-1.491555926683937,3.0587970573159176,-599,-1860,-946,20,25,24,20,
179,112,25,-12,803,803.4786987304688,1.97527277469635,0.0,1.7830288905144995,-0.8557475492765624,-892,-1703,-917,14,19,24,20,
180,112,-27,-13,742,742.6048583984375,2.310119152069092,0.0,-2.083647898980023,-1.0030679951319093,-418,-1633,420,17,15,17,17,
181,112,-21,-26,810,810.689208984375,2.3601653575897217,0.0,-1.4843493074635419,-1.8378754019574244,-842,-1925,-206,16,15,13,16,
182,112,-10,50,753,754.7244262695312,3.871389389038086,0.0,-0.7591837773476882,3.798589929518925,-493,-1789,1360,12,20,20,23,
183,114,-18,-3,794,794.2096557617188,1.3139680624008179,0.0,-1.298665052789993,-0.2164261577019104,-626,-1944,689,9,9,10,10,
184,114,-20,-46,803,804.5651245117188,3.571808338165283,0.0,-1.424413809019786,-3.2776016117943514,-580,-1952,-959,8,7,9,9,
185,114,-19,-96,793,799.015625,7.032712459564209,11.190131187438965,-1.3625796170684374,-6.900634644706998,-609,-1935,40,15,7,8,8,
186,114,-15,50,729,730.8666381835938,4.093254089355469,0.0,-1.1759971363004134,3.9227791881615555,-671,-1616,-796,12,12,10,9,
187,114,-10,38,757,758.0191040039062,2.9688282012939453,0.0,-0.7558838474027805,2.873479707278257,-766,-2221,608,10,12,8,9,
188,123,9,-6,768,768.076171875,0.8042774796485901,0.0,0.6713836960337524,-0.44758344005015194,-968,-1633,745,17,9,11,12,
189,123,9,15,801,801.1909790039062,1.2484509944915771,0.0,0.6436328772890006,1.0727615774572121,-802,-1733,475,8,10,12,12,
190,123,-4,25,773,773.4144897460938,1.8733292818069458,0.0,-0.29632769702254064,1.85236251993562,-695,-1681,77,8,7,11,8,
191,123,-35,-28,765,766.3119506835938,3.3506062030792236,0.0,-2.6177983489063092,-2.0939762449823647,-594,-2053,-369,9,8,9,11,
192,123,-26,-48,729,731.041015625,4.279935359954834,0.0,-2.03819542860031,-3.7647371725091157,-450,-1669,-373,14,9,14,10,
193,125,-1,-4,724,724.01171875,0.32364335656166077,0.0,-0.0791365589065399,-0.3165477453313383,-589,-1797,-622,11,10,11,13,
194,125,19,1,744,744.2432250976562,1.4622899293899536,0.0,1.462879388815238,0.07698531029726839,-448,-2280,-912,9,10,12,11,
195,125,-40,48,748,750.6051025390625,4.772433757781982,0.0,-3.054758552382254,3.6664756957054867,-418,-1967,110,10,12,10,11,
196,125,-6,5,721,721.0422973632812,0.6179990768432617,0.0,-0.4767801334931089,0.3973153767927382,-709,-2046,737,13,13,10,12,
197,125,-28,-33,785,786.1920776367188,3.1530439853668213,0.0,-2.041003961643637,-2.405667012512209,-516,-2010,1328,14,16,16,15,
198,125,-27,-15,717,717.6649780273438,2.464076042175293,0.0,-2.156091346274739,-1.1976330512064701,-727,-2317,-922,17,16,19,21,
199,125,5,39,749,750.0313110351562,3.0024542808532715,0.0,0.3819587356080874,2.9806002459069214,-667,-1916,661,16,16,15,16,
200,125,9,-25,837,837.421630859375,1.8156465291976929,0.0,0.6157853099158194,-1.710735995327101,-863,-1969,-408,23,18,17,20,
201,125,-12,-39,804,805.0347900390625,2.902798891067505,0.0,-0.8540933060371251,-2.7767873203099107,-1038,-2223,-1484,16,17,18,21,
202,125,-4,-78,849,852.5848999023438,5.253546237945557,2.9304540157318115,-0.2688107198171093,-5.249129587652053,-489,-1490,1377,14,22,14,18,
203,127,-38,7,810,810.9210815429688,2.7285282611846924,0.0,-2.6858806473782444,0.4945924417834206,-709,-1753,-141,17,18,20,19,
204,127,-19,-33,777,777.9324951171875,2.8031094074249268,0.0,-1.3995147999257926,-2.43122405130348,-438,-2175,1346,11,11,13,17,
205,127,-39,-26,734,735.4950561523438,3.6513140201568604,0.0,-3.0395633599825365,-2.025847302474734,-430,-2037,-8,13,16,16,12,
206,127,-47,18,747,748.6935424804688,3.8519227504730225,0.0,-3.5991676009691984,1.3776309937458184,-523,-1818,-786,15,15,15,17,
207,127,19,13,784,784.3379516601562,1.6793665885925293,0.0,1.3880831930064947,0.9496917152474924,-895,-2045,-745,9,12,15,13,
208,132,-35,-41,774,775.875,3.9815497398376465,0.0,-2.585510633390358,-3.029124107508984,-464,-1882,-271,8,8,8,10,
209,132,-25,-87,816,821.0054931640625,6.327597618103027,16.027496337890625,-1.744952954995948,-6.082918363320536,-600,-2241,286,15,8,10,13,
210,132,-12,5,753,753.1121826171875,0.9864439964294434,0.0,-0.9129827432781278,0.3803961728166919,-772,-1994,432,13,11,14,9,
211,132,-58,0,734,736.2879638671875,4.515549659729004,0.0,-4.518071389620738,0.0,-368,-1804,536,14,10,10,10,
212,132,-36,-71,764,768.1360473632812,5.946011066436768,26.882421493530273,-2.6862479521983937,-5.303507437200651,-454,-1867,1006,15,11,14,11,
213,136,-32,-28,757,758.1932373046875,3.2123589515686035,0.0,-2.4189211881907635,-2.1164085994323463,-600,-2322,-370,19,22,23,21,
214,136,-46,21,723,724.7661743164062,3.998229742050171,0.0,-3.638937189493319,1.6603697060467921,-421,-1983,-82,23,26,29,32,
215,136,-12,-15,761,761.242431640625,1.4433561563491821,0.0,-0.9032311228197077,-1.1290652124557665,-551,-2089,-934,15,18,17,16,
216,136,-42,-87,838,843.5502319335938,6.573758125305176,25.76477813720703,-2.853911957708327,-5.919757027733073,-436,-1720,-152,14,14,17,14,
217,136,-42,-46,752,754.5753784179688,4.732599258422852,0.0,-3.1907574748268837,-3.4950001312521968,-687,-2012,-348,17,17,17,16,
218,143,-28,-21,735,735.8328857421875,2.723733425140381,0.0,-2.1807523418750487,-1.6353914381383592,-554,-2508,1611,14,17,14,19,
219,143,-31,7,790,790.6389770507812,2.301089286804199,0.0,-2.247074345089118,0.5072804473263729,-610,-2379,922,14,10,11,12,
220,143,-9,22,816,816.3461303710938,1.6659244298934937,0.0,-0.6316836018181669,1.5442711543398282,-736,-1525,-28,20,14,14,15,
221,143,-32,-65,825,828.1751098632812,5.016224384307861,26.20684051513672,-2.2144127117471752,-4.501535785269718,-669,-2148,-749,14,14,15,13,
222,143,-30,-36,797,798.37646484375,3.3624091148376465,0.0,-2.153467933884235,-2.584429449648782,-634,-1787,-210,12,10,11,12,
223,146,-67,20,758,761.2180786132812,5.267807960510254,106.61859130859375,-5.049526673991245,1.505544161154893,-588,-1856,-905,13,16,12,11,
224,146,-18,-28,741,741.7472534179688,2.5694894790649414,0.0,-1.3905346659644697,-2.1633555816606505,-610,-1930,267,9,10,9,8,
225,146,-12,-3,769,769.0994873046875,0.918891429901123,0.0,-0.8940030223771499,-0.22349225343146245,-464,-1745,1852,7,7,9,8,
226,146,18,-45,825,826.4224243164062,3.3595471382141113,0.0,1.2480368133912971,-3.121389077783057,-496,-1711,-137,18,11,11,8,
227,145,-38,17,730,731.18603515625,3.2612783908843994,0.0,-2.9790242668805504,1.3322410381585246,-344,-2394,230,7,10,12,10,
228,145,-57,-7,759,761.1694946289062,4.324401378631592,0.0,-4.294601300269952,-0.526920893167355,-464,-1868,-1343,11,17,10,11,
229,145,-28,-2,714,714.5516357421875,2.248870849609375,0.0,-2.2457337646098448,-0.16036869474631246,-357,-1667,-771,8,8,9,7,
230,145,-29,-12,765,765.6434936523438,2.3467025756835938,0.0,-2.1706905536421433,-0.8980386930383373,-646,-2136,1124,14,9,9,9,
231,145,-28,6,732,732.5598754882812,2.2376623153686523,0.0,-2.1905003512182426,0.46928384023037517,-576,-2219,179,9,9,10,10,
232,151,-11,27,780,780.544677734375,2.1380069255828857,0.0,-0.8074802804435787,1.9823269032911368,-568,-1914,658,9,7,10,13,
233,151,-33,-15,749,749.8766479492188,2.7681922912597656,0.0,-2.522243526482252,-1.1461805220503951,-484,-2034,-66,9,8,10,10,
234,151,-36,-6,788,788.8447265625,2.6492068767547607,0.0,-2.6156791582058068,-0.43579931638979114,-742,-1515,84,9,10,7,8,
235,151,-8,9,753,753.0962524414062,0.9135363698005676,0.0,-0.6086537301810089,0.6847388675182847,-699,-2325,79,11,7,8,7,
236,151,15,-19,756,756.387451171875,1.8314043283462524,0.0,1.1363131629175574,-1.439387053142708,-563,-2217,-763,8,9,11,13,
237,157,6,-33,798,798.70458984375,2.40421462059021,0.0,0.43041935750294075,-2.367958244777395,-750,-2095,-506,8,6,10,11,
238,157,-27,-35,804,805.2142333984375,3.1444034576416016,0.0,-1.9215706554459233,-2.4912428863870466,-581,-1798,859,11,9,9,11,
239,157,3,-49,764,765.5756225585938,3.674011468887329,0.0,0.22452097264721602,-3.6696749035171914,-644,-1810,918,12,10,7,9,
240,157,-32,24,753,754.0616455078125,3.038177251815796,0.0,-2.4321826417569596,1.8238972138099458,-415,-1964,47,9,10,9,8,
241,157,-25,49,754,756.0039672851562,4.170164108276367,0.0,-1.8950372462499854,3.7162008578130803,-553,-1817,807,9,9,10,14,
242,158,-36,-30,772,773.4209594726562,3.4711215496063232,0.0,-2.6678790422234355,-2.2229869183991227,-701,-1703,-238,10,10,8,10,
243,158,-24,-65,799,801.998779296875,4.953780651092529,0.0,-1.7148455950795558,-4.64877903158376,-547,-2368,-1040,11,7,8,7,
244,158,-11,-11,759,759.159423828125,1.1715407371520996,0.0,-0.8302283125023797,-0.8302283125023797,-526,-2136,-280,10,7,9,7,
245,158,-36,30,753,754.456787109375,3.5585505962371826,0.0,-2.7349898716471275,2.2788935961736905,-439,-1972,652,12,6,9,9,
246,158,-27,-28,765,765.9882202148438,2.9081950187683105,0.0,-2.0200134536425076,-2.094861525694033,-394,-2007,830,9,9,8,9,
247,159,3,-15,742,742.1576538085938,1.1784189939498901,0.0,0.23160551283021497,-1.158103266769239,-630,-2152,355,7,7,10,12,
248,159,-30,32,734,735.3094482421875,3.4173390865325928,0.0,-2.3382680407835252,2.4942480384075956,-531,-1954,118,10,6,11,14,
249,159,-37,-22,819,820.1304931640625,3.00612211227417,0.0,-2.585763723201687,-1.5371436688617934,-483,-2071,-229,11,8,8,10,
250,159,-25,-18,738,738.6427001953125,2.3876850605010986,0.0,-1.9395956357218989,-1.3963803742454526,-521,-2163,-667,9,7,6,8,
251,159,-24,-38,756,757.3347778320312,3.3996894359588623,0.0,-1.8160118500269964,-2.8760783688081735,-462,-2025,340,11,7,8,8,
252,164,-19,-12,741,741.3406982421875,1.7344673871994019,0.0,-1.4686082354128198,-0.9274809859929971,-419,-2115,775,10,10,9,9,
253,164,-1,25,757,757.4133911132812,1.890425682067871,0.0,-0.07564666677437643,1.8915096822472393,-752,-2059,-278,13,15,12,12,
254,164,-23,-12,771,771.4363403320312,1.9245367050170898,0.0,-1.7084990708956795,-0.8912946729416671,-574,-1720,609,14,13,13,11,
255,164,-34,-45,758,760.0953979492188,4.252825736999512,0.0,-2.5637660176462322,-3.3940721946926695,-575,-1939,97,13,13,11,11,
256,164,-25,-5,759,759.4281005859375,1.921264886856079,0.0,-1.8864898145275353,-0.3772325214364453,-500,-2128,-339,9,7,8,11,
257,165,-12,30,749,749.6965942382812,2.467559576034546,0.0,-0.9171426305894717,2.2933710002317502,-604,-1904,-298,9,9,9,8,
258,165,-9,54,787,788.9017944335938,3.9766318798065186,0.0,-0.653659584050233,3.924941458356285,-575,-1415,273,10,12,11,9,
259,165,-27,-43,785,786.6403198242188,3.698204755783081,0.0,-1.9669598744839536,-3.133512277610807,-467,-1959,649,15,10,13,12,
260,165,-22,-90,798,803.3604125976562,6.620075225830078,13.731364250183105,-1.5692392684471566,-6.432315683866632,-572,-2318,14,12,8,9,7,
261,165,-19,-3,741,741.2496337890625,1.4843794107437134,0.0,-1.4687886822327536,-0.2318892354532644,-495,-1952,-8,9,12,12,10,
262,168,-11,13,741,741.1956787109375,1.3138997554779053,0.0,-0.8503513314780982,1.004975301759917,-498,-1877,-195,16,12,12,10,
263,168,-27,-9,720,720.562255859375,2.261049509048462,0.0,-2.147417824911697,-0.7156569783105877,-464,-2395,-145,10,12,11,10,
264,168,-21,-16,770,770.4524536132812,1.961113452911377,0.0,-1.5618879274182917,-1.1899480115112595,-527,-2382,117,10,9,10,12,
265,168,-46,-5,760,761.4072265625,3.481476306915283,0.0,-3.463602143210494,-0.37625194224242725,-498,-1916,-27,8,9,6,8,
266,170,-6,31,746,746.6679077148438,2.421078681945801,0.0,-0.46041668912287115,2.379477888004597,-522,-2123,-68,8,9,9,9,
267,170,-7,-25,735,735.4583740234375,2.020353317260742,0.0,-0.5453422435324604,-1.9479967320624862,-597,-1992,242,6,8,9,8,
268,170,9,-18,785,785.2579345703125,1.46592378616333,0.0,0.656692906910542,-1.3134721000657619,-601,-1840,1270,8,10,7,9,
269,170,-19,14,738,738.3772583007812,1.829061508178711,0.0,-1.4745036451069262,1.0864215489332676,-505,-2181,-153,8,10,8,11,
270,170,-11,-6,808,808.09716796875,0.8858050107955933,0.0,-0.7799471161106329,-0.42541646977906933,-629,-2010,-511,9,8,8,7,
271,182,-18,-26,792,792.6310424804688,2.2838902473449707,0.0,-1.3012519255079404,-1.8797617392101111,-609,-1875,313,8,10,8,8,
272,182,7,-50,765,766.6641845703125,3.7733254432678223,0.0,0.5231443281833079,-3.7393472654382767,-468,-2229,663,5,6,5,6,
273,182,-5,-36,751,751.8789672851562,2.768165111541748,0.0,-0.38102010675133685,-2.7443738095614987,-628,-1896,344,9,7,10,10,
274,182,-15,-3,741,741.1578979492188,1.1800172328948975,0.0,-1.1596657070635463,-0.23191793952696615,-502,-1902,-659,15,6,8,6,
275,182,-21,-14,754,754.4223022460938,1.9145642518997192,0.0,-1.5950838316043274,-1.0633129006503574,-688,-1958,336,9,12,7,10,
276,180,-29,-92,807,812.7447509765625,6.813894271850586,17.4909610748291,-2.0448368612319605,-6.4996228382393815,-572,-1784,-249,8,12,10,11,
277,180,0,-39,786,786.9669799804688,2.838019371032715,0.0,0.0,-2.8405907289693264,-526,-1803,-37,10,12,10,10,
278,180,-11,6,719,719.1091918945312,0.9957606196403503,0.0,-0.8764707519907128,0.478061857286615,-569,-2060,654,9,12,12,9,
279,180,-20,-26,750,750.7169799804688,2.5017457008361816,0.0,-1.5266088297184244,-1.9847535843647361,-573,-2336,142,10,9,9,9,
280,180,-20,15,747,747.418212890625,1.9142159223556519,0.0,-1.533348199510505,1.1499510836829094,-448,-2064,391,10,12,13,6,
281,184,-27,44,742,743.7936401367188,3.9773218631744385,0.0,-2.0803162119267498,3.3913800788442567,-540,-2329,80,13,9,9,8,
282,184,-34,40,761,762.8086547851562,3.9437572956085205,0.0,-2.5546408886590295,3.0058427767918676,-426,-2121,211,12,6,10,12,
283,184,-21,-23,787,787.6160278320312,2.2636587619781494,0.0,-1.5278434424568308,-1.6733919279515546,-391,-1518,26,13,9,10,10,
284,184,-30,16,713,713.8101806640625,2.7275514602661133,0.0,-2.4087352815395864,1.284388001863009,-431,-1976,-125,6,6,9,7,
285,184,-23,25,697,697.8273315429688,2.7877135276794434,0.0,-1.888779012848992,2.0530881814174955,-451,-2357,751,7,11,10,7,
286,183,-13,66,753,755.9986572265625,5.1023759841918945,168.85678100585938,-0.9852951716170153,5.008397036220968,-540,-2196,930,9,7,9,8,
287,183,-27,11,774,774.5488891601562,2.1545841693878174,0.0,-1.9976782868925258,0.8137314014781244,-561,-1837,496,7,8,10,7,
288,183,-15,-68,806,809.0025024414062,4.9353251457214355,0.0,-1.0624021223372242,-4.821635933691412,-496,-1641,-465,9,9,9,11,
289,183,3,-96,840,845.4732666015625,6.5204949378967285,358.21533203125,0.20330353587419167,-6.519760529690168,-580,-2211,-899,15,7,9,6,
290,183,5,7,760,760.0487060546875,0.6458601951599121,0.0,0.37692449242993203,0.5276979435106491,-542,-1896,295,9,15,8,10,
291,188,-17,-38,747,748.1590576171875,3.187154769897461,0.0,-1.302011994110295,-2.911381966156548,-532,-2328,199,11,7,7,5,
292,188,-14,-1,762,762.1292724609375,1.052616834640503,0.0,-1.0525590355263026,-0.0751785811174552,-547,-2117,-401,8,11,11,12,
293,188,-22,24,756,756.7007446289062,2.4633724689483643,0.0,-1.6660282459664293,1.81753406270823,-546,-2143,721,5,5,5,7,
294,188,-4,17,777,777.1962280273438,1.2849730253219604,0.0,-0.29488579228595424,1.2533590427757892,-520,-2075,665,13,8,8,9,
295,188,6,-53,792,793.7940673828125,3.8503174781799316,0.0,0.43308204307367365,-3.82836967244551,-585,-2052,175,4,5,6,6,
296,192,-30,-27,763,764.0667724609375,3.0254180431365967,0.0,-2.2502161414498483,-2.025095561988586,-533,-2047,-449,9,6,8,7,
297,192,-35,10,740,740.8947143554688,2.813532590866089,0.0,-2.7076706344135624,0.7733557416558015,-551,-1920,-1126,8,7,5,7,
298,192,-11,5,759,759.09619140625,0.9094244837760925,0.0,-0.8302974729008398,0.3773974619754427,-624,-2037,-70,9,6,6,8,
299,192,-14,-36,750,750.9940185546875,2.9456663131713867,0.0,-1.0681674850920702,-2.747610260663116,-586,-2144,438,5,5,6,10,
300,192,-17,8,765,765.230712890625,1.4042794704437256,0.0,-1.2729604396110672,0.5990018375126939,-570,-2098,611,6,6,5,6,
301,191,-26,31,759,760.07763671875,3.0487985610961914,0.0,-1.9603010086711168,2.337474351120469,-427,-2274,918,9,6,7,8,
302,191,-2,9,774,774.054931640625,0.6798141002655029,0.0,-0.14804077256243245,0.666197746303062,-565,-1979,48,5,6,7,9,
303,191,-20,-15,777,777.402099609375,1.8402564525604248,0.0,-1.4741947035808503,-1.1055926492617618,-598,-2205,-530,5,6,6,6,
304,191,-11,-6,755,755.1039428710938,0.9481664896011353,0.0,-0.8346875346791449,-0.45527279689446376,-539,-2105,-832,5,6,4,5,
305,191,-18,7,713,713.2615356445312,1.548995018005371,0.0,-1.446080432763858,0.5623139371244478,-539,-2117,43,10,5,6,8,
306,197,-18,6,796,796.22607421875,1.3628463745117188,0.0,-1.2953756453555922,0.43175918410895153,-524,-2175,394,7,7,5,9,
307,197,-36,-3,765,765.8524780273438,2.701035976409912,0.0,-2.6942636033262755,-0.22443980494046914,-515,-1762,674,7,8,7,8,
308,197,-21,-6,736,736.323974609375,1.697111964225769,0.0,-1.6343003625537016,-0.4668848116538573,-581,-2045,901,10,7,10,11,
309,197,1,1,762,762.0013427734375,0.10368429124355316,0.0,0.07519120378352576,0.07519120378352576,-612,-2173,-13,8,5,7,5,
310,197,-12,24,750,750.4798583984375,2.0464046001434326,0.0,-0.9161853694997057,1.832605107472115,-571,-2072,-672,8,8,6,5,
311,202,-9,30,780,780.6286010742188,2.296888589859009,0.0,-0.6605874353030333,2.2024516981303943,-508,-1805,-965,8,6,7,4,
312,202,-16,-51,801,802.7814331054688,3.815154552459717,0.0,-1.142020927312998,-3.642403578379375,-482,-1908,18,8,7,7,6,
313,202,-9,-48,798,799.4929809570312,3.499501943588257,0.0,-0.6449999315790812,-3.441996912154013,-375,-2223,897,8,8,10,10,
314,202,-8,36,718,718.9464721679688,2.937695264816284,0.0,-0.6375658365049798,2.870187327303978,-620,-1873,954,10,8,9,10,
315,204,-39,22,774,775.2941284179688,3.30840802192688,0.0,-2.8833945212096443,1.6260620487986825,-418,-1918,657,11,8,9,8,
316,204,-18,-17,781,781.392333984375,1.813146710395813,0.0,-1.3199710345887765,-1.2466273959087797,-432,-1932,30,9,5,10,9,
317,204,-47,-24,784,785.774169921875,3.8483777046203613,0.0,-3.42911506935,-1.750264520110488,-303,-2012,-564,7,8,8,7,
318,204,-36,0,750,750.863525390625,2.7455155849456787,0.0,-2.74808818005375,0.0,-491,-1916,-592,8,8,8,9,
319,204,-21,18,774,774.4940185546875,2.0439796447753906,0.0,-1.5537354801146983,1.3317299550138164,-572,-2037,-629,8,7,8,8,
320,211,-24,-18,737,737.6103515625,2.328383445739746,0.0,-1.8645908284949164,-1.3983351056759101,-541,-2029,737,9,12,7,7,
321,211,-26,-2,757,757.4490356445312,1.9703208208084106,0.0,-1.9671066250414462,-0.15128634527533164,-588,-1978,1142,10,10,8,7,
322,211,-24,27,732,732.890869140625,2.822726249694824,0.0,-1.8766022158810047,2.1112778119952544,-536,-2055,496,7,7,8,9,
323,211,4,24,746,746.3966674804688,1.8654606342315674,0.0,0.3070541737742782,1.8426338369699062,-525,-1900,-16,9,8,12,11,
324,211,-18,24,753,753.5973510742188,2.2789041996002197,0.0,-1.3686646981989974,1.8250213081324427,-511,-1987,-448,9,13,7,7,
325,210,-6,-17,781,781.2080688476562,1.319698691368103,0.0,-0.4400595486315532,-1.2469215555499344,-712,-1951,-78,9,5,6,6,
326,210,-13,-8,714,714.1631469726562,1.2220993041992188,0.0,-1.0430197607588558,-0.6418362877036012,-564,-2178,-233,7,8,10,10,
327,210,3,16,758,758.1748046875,1.22767972946167,0.0,0.22671261451509586,1.2092205545560433,-676,-1851,577,11,7,11,12,
328,210,-15,0,835,835.1347045898438,1.0265315771102905,0.0,-1.0291548043059815,0.0,-464,-1853,1600,13,8,12,12,
329,210,-15,0,792,792.1420288085938,1.0823973417282104,0.0,-1.0850176194974108,0.0,-547,-1594,-129,8,9,9,8,
330,213,-12,-12,795,795.1810913085938,1.220268726348877,0.0,-0.8646777991575303,-0.8646777991575303,-515,-1809,-81,7,7,8,6,
331,213,11,-6,738,738.1063842773438,0.9700646996498108,0.0,0.8539106830568848,-0.465757350783432,-626,-2178,-436,10,19,9,11,
332,213,-18,45,783,784.4985961914062,3.5394527912139893,0.0,-1.3147436952236782,3.2883757943225205,-687,-1652,-115,6,8,8,9,
333,213,-19,-22,783,783.5394287109375,2.123540163040161,0.0,-1.3894981133993167,-1.6089463032541471,-643,-1796,-332,6,9,8,10,
334,213,-36,-45,790,792.09912109375,4.169631481170654,0.0,-2.604925062930731,-3.2567881707422894,-515,-1675,308,7,11,8,9,
335,212,-45,4,744,745.370361328125,3.4723169803619385,0.0,-3.4612039767466602,0.3074769603811188,-395,-1919,1144,8,10,9,8,
336,212,16,21,745,745.4676513671875,2.026958465576172,0.0,1.2298359089835564,1.614249233263854,-712,-1828,800,8,5,8,9,
337,212,21,-28,783,783.7818603515625,2.556832790374756,0.0,1.5353192523385366,-2.0472829824990595,-731,-2094,309,8,5,9,12,
338,212,-26,-2,776,776.4380493164062,1.9220503568649292,0.0,-1.9189797172440577,-0.14758639156143644,-497,-2090,75,5,8,7,9,
339,212,-36,-24,767,768.2193603515625,3.226081371307373,0.0,-2.6859564126785576,-1.790273123372767,-463,-1958,-933,7,6,6,7,
340,222,-13,15,764,764.2578125,1.4856499433517456,0.0,-0.9746463136938035,1.1246098751660367,-586,-1550,-1085,7,9,8,9,
341,222,-10,-13,741,741.1815185546875,1.265356183052063,0.0,-0.7730565155359151,-1.0049945121396981,-565,-2141,421,9,8,9,7,
342,222,-25,-32,773,774.06591796875,3.0045785903930664,0.0,-1.850803202308591,-2.369291306696736,-613,-2193,614,12,9,10,8,
343,222,-8,-8,758,758.0844116210938,0.8524863719940186,0.0,-0.6046486739131808,-0.6046486739131808,-715,-2101,500,10,12,9,6,
344,222,1,14,777,777.1267700195312,1.032248616218567,0.0,0.07372773442737818,1.0322438368610032,-610,-2040,437,9,7,11,7,
345,223,0,-10,772,772.0647583007812,0.7394980192184448,0.0,0.0,-0.7421318042446664,-921,-1907,238,6,10,9,7,
346,223,-57,-30,783,785.6449584960938,4.700277805328369,0.0,-4.160570662539173,-2.188382117874912,-836,-1878,-517,11,19,8,9,
347,223,2,0,757,757.0026245117188,0.14872388541698456,0.0,0.15137555139109185,0.0,-570,-2175,-428,10,7,9,9,
348,223,-6,15,762,762.1712646484375,1.211949348449707,0.0,-0.4510511675244925,1.1276890769968666,-452,-2068,-184,10,8,10,8,
349,223,-48,-30,802,803.9949951171875,4.0346150398254395,0.0,-3.422700039167259,-2.138411867779455,-353,-2178,1115,11,12,13,12,
350,226,-45,-16,784,785.453369140625,3.4834914207458496,0.0,-3.2843740194385416,-1.167218725654148,-423,-2081,1090,10,11,8,9,
351,226,-21,-19,806,806.4973754882812,2.009718418121338,0.0,-1.4920660960444343,-1.3499368779207384,-273,-2117,520,9,8,8,8,
352,226,-72,30,761,764.9869384765625,5.849709510803223,112.61787414550781,-5.400629726159531,2.2475080423504363,-375,-1867,98,8,8,7,8,
353,226,-38,-24,765,766.3191528320312,3.3597519397735596,0.0,-2.8423313801886425,-1.7947139238020544,-338,-1926,-1211,9,8,9,8,
354,233,-12,-27,748,748.5833129882812,2.259464979171753,0.0,-0.9185067016364716,-2.066999890278853,-522,-1938,-365,11,11,8,8,
355,233,-18,-4,794,794.2140502929688,1.3277244567871094,0.0,-1.2986578456057736,-0.2885671428061306,-708,-1725,847,8,15,6,6,
356,233,-40,-21,756,757.3486938476562,3.4172911643981934,0.0,-3.0275329476811264,-1.5889188989483771,-530,-1914,398,5,9,8,5,
357,233,-21,18,748,748.5111694335938,2.1150567531585693,0.0,-1.6076837449161014,1.3779666539096231,-568,-1785,31,12,9,10,9,
358,233,-6,-33,747,747.7526245117188,2.568328380584717,0.0,-0.45974878732253227,-2.5294127194848315,-710,-1823,-408,14,12,14,12,
359,231,0,-24,756,756.380859375,1.8157012462615967,0.0,0.0,-1.8183029644518336,-509,-2252,-65,6,12,6,7,
360,231,-14,-10,736,736.2010498046875,1.336480975151062,0.0,-1.0896334050832321,-0.7782865945291249,-599,-2058,185,8,9,9,9,
361,231,-6,45,756,757.3618774414062,3.433964252471924,0.0,-0.45391547610728705,3.4063367298620544,-611,-1988,6,9,12,10,9,
362,231,-3,-31,804,804.60302734375,2.2157845497131348,0.0,-0.2136304925056139,-2.208056488976579,-653,-2051,-319,9,11,9,8,
363,231,-18,-31,729,729.8807983398438,2.812548875808716,0.0,-1.413146616869172,-2.434238005862908,-678,-2105,339,9,7,5,7,
364,232,-38,-3,737,737.985107421875,2.9581797122955322,0.0,-2.951554037996254,-0.2329150184602426,-746,-2072,1273,12,9,13,9,
365,232,-10,13,754,754.1783447265625,1.2434989213943481,0.0,-0.7597335260844899,0.9876735564848352,-699,-2032,498,9,10,11,11,
366,232,-12,0,783,783.0919189453125,0.8753954768180847,0.0,-0.8780274994728942,0.0,-697,-1997,-209,10,9,11,10,
367,232,5,-54,803,804.8291625976562,3.861088991165161,0.0,0.3559522312115298,-3.847149534349531,-811,-1721,-23,11,8,10,9,
368,232,-38,-18,814,815.0852661132812,2.9544434547424316,0.0,-2.6721487646375968,-1.2653987408958791,-789,-1676,-500,11,7,10,12,
369,238,-7,19,752,752.2725830078125,1.539773941040039,0.0,-0.5331528325885327,1.4472621304707642,-559,-1858,126,10,11,10,10,
370,238,-4,2,748,748.0133666992188,0.33991336822509766,0.0,-0.3063905270716105,0.153194715938213,-591,-1819,750,8,11,6,6,
371,238,-19,-41,774,775.3179931640625,3.3387553691864014,0.0,-1.4042351687534038,-3.0313022708050372,-500,-1985,108,10,12,13,8,
372,238,-27,-36,815,816.2413940429688,3.1577978134155273,0.0,-1.8956013835780143,-2.5278274296756598,-769,-1696,79,8,10,12,9,
373,238,-42,24,765,766.5278930664062,3.6156389713287354,0.0,-3.140953532635715,1.794224978301291,-568,-1980,605,8,8,8,8,
374,242,-53,24,750,752.2532958984375,4.4332709312438965,0.0,-4.040120943537715,1.8282832766139692,-499,-2035,855,9,6,8,9,
375,242,-18,-66,723,726.2293090820312,5.402756214141846,15.250266075134277,-1.4202534257648116,-5.21425711559286,-536,-2070,-510,9,9,7,10,
376,242,-6,-27,744,744.513916015625,2.126429319381714,0.0,-0.46174877596306957,-2.078302723043425,-552,-2071,-403,9,7,8,7,
377,242,-9,-8,727,727.0997314453125,0.9463017582893372,0.0,-0.7092220935449833,-0.6304162597550872,-659,-2313,1162,12,8,11,9,
378,242,-13,25,742,742.5348510742188,2.172213554382324,0.0,-1.0031626022769335,1.9294249274870938,-783,-2230,-419,10,9,10,10,
379,241,-52,12,752,753.8912353515625,4.056731700897217,0.0,-3.9551435417563994,0.9120392378005676,-322,-1752,-348,8,7,8,7,
380,241,-3,19,771,771.2399291992188,1.4265397787094116,0.0,-0.2228719878261676,1.4116618477583387,-532,-1743,507,15,13,14,13,
381,241,-13,17,705,705.3247680664062,1.7361271381378174,0.0,-1.0560912746060143,1.3810979770805416,-554,-2184,488,16,13,17,18,
382,241,19,20,738,738.515380859375,2.1381094455718994,0.0,1.4742278012053023,1.551837241874912,-740,-2183,642,18,20,27,20,
383,241,-21,8,804,804.31396484375,1.5984196662902832,0.0,-1.4961173429442032,0.5698940934793651,-531,-1977,462,21,22,26,20,
384,246,-20,-18,784,784.4616088867188,1.9630464315414429,0.0,-1.4609252640532633,-1.314805662402533,-620,-1878,90,12,12,11,9,
385,246,-11,-80,786,790.1373291015625,5.863438606262207,7.823991775512695,-0.7976764431322088,-5.811053190139943,-722,-1757,-997,11,11,13,13,
386,246,-25,37,743,744.3406372070312,3.4367783069610596,0.0,-1.9247423017972705,2.849257068298982,-459,-1777,-600,8,9,10,11,
387,246,-7,37,780,780.908447265625,2.761368751525879,0.0,-0.51360160119322,2.715731716489997,-762,-1753,602,11,9,10,9,
388,246,-19,3,780,780.2371215820312,1.4100580215454102,0.0,-1.3953801614920291,0.22030194731884906,-633,-1884,376,12,10,14,9,
389,250,-8,-49,779,780.58056640625,3.6442105770111084,0.0,-0.5872222397729565,-3.599039594251841,-877,-1969,669,12,8,9,9,
390,250,-29,12,765,765.6434936523438,2.3467025756835938,0.0,-2.1706905536421433,0.8980386930383373,-618,-1743,129,6,6,8,5,
391,250,-38,-29,761,762.4998168945312,3.591718912124634,0.0,-2.8565801221201554,-2.179644329226308,-273,-1893,-1141,9,5,10,5,
392,250,-21,-43,740,741.545654296875,3.6974737644195557,0.0,-1.622789101684287,-3.3242743825214958,-666,-2063,127,10,9,10,8,
393,251,-7,1,771,771.0324096679688,0.5228244066238403,0.0,-0.5201804146345895,0.07431048777931204,-645,-2162,828,6,8,8,9,
394,251,-7,9,769,769.0845336914062,0.846817135810852,0.0,-0.521497941438855,0.6705033995078271,-668,-2105,372,7,7,7,7,
395,251,-49,30,747,749.2062377929688,4.395628452301025,0.0,-3.7499668175288368,2.29487282419531,-546,-1769,-495,9,5,9,7,
396,251,-2,-34,746,746.777099609375,2.6114554405212402,0.0,-0.15344833126737836,-2.609520583889713,-824,-1954,1500,14,8,11,9,
397,251,-7,-73,729,732.6793212890625,5.741946220397949,5.472219944000244,-0.5474107732559689,-5.718112860181795,-714,-2094,-342,10,9,12,9,
398,255,-14,-13,758,758.24072265625,1.4411909580230713,0.0,-1.0579575432975818,-0.9823814563751339,-654,-2492,-728,10,10,10,11,
399,255,-20,51,782,783.9164428710938,4.004650115966797,0.0,-1.4619414374292645,3.7301806818604724,-658,-2209,1495,7,8,9,7,
400,255,22,-95,823,828.7568969726562,6.75479793548584,346.9662780761719,1.5211399599380682,-6.582256402097466,-1025,-2011,-1319,12,7,9,10,
401,255,-50,-35,844,846.203857421875,4.13353967666626,0.0,-3.3874325853305924,-2.3704978854025307,-875,-1729,-2116,9,10,14,11,
402,255,-57,12,742,744.2828979492188,4.486178874969482,0.0,-4.392228291814376,0.923814274587159,-655,-2181,1334,9,7,9,7,
403,259,-15,23,742,742.5079345703125,2.1167781352996826,0.0,-1.1575569053645682,1.7750837945234348,-640,-1928,1708,9,5,6,9,
404,259,-22,40,777,778.3399047851562,3.359861373901367,0.0,-1.619697322032814,2.9458096637732756,-601,-1885,38,12,6,8,5,
405,259,-24,-36,798,799.1720581054688,3.100907564163208,0.0,-1.720912846613958,-2.5818548476040126,-658,-1930,74,10,7,8,8,
406,259,-9,-39,756,757.0587768554688,3.0280203819274902,0.0,-0.6811547195045486,-2.9529079832462837,-579,-1978,-124,7,8,7,7,
407,259,-15,-9,765,765.199951171875,1.3073084354400635,0.0,-1.1232250048462427,-0.673907374637773,-615,-1833,-1319,9,7,11,11,
408,267,-55,10,741,743.1056518554688,4.311744689941406,0.0,-4.244554097217277,0.7710546854283228,-269,-1670,-1005,7,6,9,11,
409,267,-20,-30,738,738.8802490234375,2.7944278717041016,0.0,-1.551070815907782,-2.32696169645963,-613,-1990,1090,9,8,12,12,
410,267,-40,-57,726,729.3319091796875,5.4763054847717285,35.05514907836914,-3.143948224279188,-4.482449366808694,-372,-2192,290,18,10,14,11,
411,267,-39,51,780,782.6378173828125,4.7029619216918945,0.0,-2.8563162828263358,3.736283356620673,-548,-1938,1033,9,7,9,10,
412,267,-13,27,776,776.578369140625,2.208892583847046,0.0,-0.9591818845011916,1.992455493177455,-617,-2091,829,8,8,9,9,
413,265,-63,-51,778,782.2109985351562,5.945396423339844,51.00520324707031,-4.619659157636214,-3.7383252670888028,-115,-2196,-1550,8,7,6,6,
414,265,-9,-24,774,774.42431640625,1.8941346406936646,0.0,-0.665879960571208,-1.775924274523643,-672,-2101,-416,8,6,9,11,
415,265,-22,15,732,732.484130859375,2.0806658267974854,0.0,-1.721124991228988,1.173399856955673,-684,-2174,413,8,7,9,10,
416,265,-12,15,742,742.2485961914062,1.480370044708252,0.0,-0.9263463739338074,1.1579613485938138,-611,-1821,356,10,5,9,8,
417,265,1,-42,803,804.0982666015625,2.9923453330993652,0.0,0.07125471805163332,-2.99405985258094,-760,-1948,1072,8,8,8,8,
418,261,10,-18,802,802.2642822265625,1.4681299924850464,0.0,0.7141943571199874,-1.2856244306985318,-713,-1743,747,9,6,8,8,
419,261,-15,-58,791,793.265380859375,4.328636169433594,0.0,-1.0834809052616605,-4.192951320955531,-626,-1922,14,11,8,11,11,
420,261,-14,36,700,701.0648803710938,3.155851125717163,0.0,-1.1442510266768506,2.9434587525338616,-659,-2342,-361,10,9,9,9,
421,261,8,30,740,740.6510620117188,2.399979591369629,0.0,0.6188813748696955,2.321395087276135,-757,-1934,35,10,6,12,10,
422,261,-2,-15,803,803.142578125,1.0770013332366943,0.0,-0.14267912155615875,-1.0701545264656285,-739,-1626,133,7,10,7,9,
423,266,-15,-61,822,824.396728515625,4.3675217628479,0.0,-1.0425612690283375,-4.243393348644279,-604,-2367,-1241,11,9,8,9,
424,266,-15,24,731,731.5476684570312,2.2146096229553223,0.0,-1.1749021379743751,1.8800490356007473,-781,-1678,1282,13,11,9,9,
425,266,-60,23,777,779.6524658203125,4.7250447273254395,0.0,-4.413696115652189,1.6904892458017617,-545,-1771,517,11,10,11,7,
426,266,-7,-27,774,774.50244140625,2.061281204223633,0.0,-0.5178497914348283,-1.997798221773209,-645,-2053,618,8,8,6,7,
427,266,-6,13,733,733.1398315429688,1.1164058446884155,0.0,-0.46891261933763895,1.0160192483113677,-625,-2156,-80,10,9,10,8,
428,271,-15,-13,767,767.2567749023438,1.4798303842544556,0.0,-1.1202135288370578,-0.9708363288702345,-724,-2119,-850,10,7,9,6,
429,271,-43,22,761,762.5313110351562,3.6291768550872803,0.0,-3.2326884288723683,1.6532856689801938,-548,-1664,-660,10,8,11,9,
430,271,-46,-18,716,717.701904296875,3.944003105163574,0.0,-3.6748039053222326,-1.437131764331491,-429,-1507,-396,15,7,10,12,
431,271,-37,3,712,712.967041015625,2.9819495677948,0.0,-2.9747469960857367,0.24108806738738037,-672,-2091,1532,9,7,9,11,
432,272,-19,21,715,715.5606079101562,2.265584945678711,0.0,-1.5215311493227226,1.6817361404348328,-638,-2140,958,14,10,14,9,
433,272,-41,45,785,787.3569946289062,4.43189811706543,0.0,-2.9849102623098354,3.2764246863139066,-424,-2004,574,13,9,9,11,
434,272,-12,0,754,754.095458984375,0.9091649651527405,0.0,-0.9117921922424231,0.0,-742,-1858,-550,12,9,10,8,
435,272,-1,-29,845,845.4981079101562,1.9641597270965576,0.0,-0.06776572810529267,-1.9655911862909448,-1047,-1826,-1526,14,8,10,10,
436,272,-14,-6,733,733.1582641601562,1.1877970695495605,0.0,-1.0941562536213978,-0.46890084204672366,-477,-2170,79,13,5,10,10,
437,278,-21,51,752,754.0198974609375,4.192233085632324,0.0,-1.5959353088316492,3.878302661284217,-613,-2168,416,10,9,9,9,
438,278,-16,-20,801,801.4093627929688,1.8288428783416748,0.0,-1.1439763530497933,-1.4300238977803361,-550,-2040,1827,9,8,9,9,
439,278,-14,-83,800,804.4159545898438,6.003830432891846,9.569197654724121,-0.9972221781599873,-5.9223447173554105,-530,-2021,-286,8,9,8,6,
440,278,-25,-59,822,824.4937744140625,4.454889297485352,0.0,-1.7375680657562824,-4.103539372049219,-636,-2047,-622,13,14,7,6,
441,278,-28,-8,738,738.5742797851562,2.257046937942505,0.0,-2.1726539339175015,-0.6206216465275673,-732,-2201,474,11,8,9,7,
442,282,-7,-9,754,754.086181640625,0.8637155294418335,0.0,-0.5318705153089394,-0.6838399339282684,-482,-2163,-485,10,7,10,10,
443,282,-5,-6,778,778.0391845703125,0.572529137134552,0.0,-0.36820878523931644,-0.44185188051659613,-772,-1907,-58,10,8,9,10,
444,282,13,-13,752,752.2246704101562,1.3978657722473145,0.0,0.990238974244856,-0.990238974244856,-614,-1847,436,9,11,12,16,
445,282,12,-49,806,807.5772705078125,3.5789530277252197,0.0,0.8514042043292844,-3.4785758462721494,-383,-2258,-831,12,11,9,10,
446,282,-24,0,747,747.3854370117188,1.837592601776123,0.0,-1.840195256392783,0.0,-751,-1793,818,16,14,17,14,
447,283,-36,-39,769,770.8294067382812,3.945683479309082,0.0,-2.6768550419500228,-2.9001096413364262,-375,-2115,-217,10,12,12,15,
448,283,-9,21,754,754.3460693359375,1.7330125570297241,0.0,-0.6836043396785497,1.5952450447242805,-714,-2045,300,11,13,13,13,
449,283,-15,3,777,777.1505737304688,1.1252306699752808,0.0,-1.105950510970569,0.22117691639010573,-533,-2215,617,8,8,8,10,
450,283,-6,42,759,760.1848754882812,3.1968131065368652,0.0,-0.4522298074524791,3.1671885034490574,-657,-1960,249,9,12,9,10,
451,283,-10,-60,820,822.2529907226562,4.239902496337891,0.0,-0.6968316545745407,-4.184606072736176,-705,-1976,-1108,11,10,8,8,
452,285,-1,-51,810,811.6045532226562,3.6008989810943604,0.0,-0.07059570038568776,-3.602753483754268,-789,-1711,619,9,8,10,12,
453,285,-39,23,773,774.3248901367188,3.349601984024048,0.0,-2.887006900931608,1.7021238001721686,-719,-1758,600,9,9,11,9,
454,285,-13,25,746,746.531982421875,2.1605608463287354,0.0,-0.9977908537527946,1.9190903889492428,-631,-2044,68,9,9,9,10,
455,285,-45,-32,730,732.0853881835938,4.3231306076049805,0.0,-3.5240923368280312,-2.5052396190901436,-420,-1808,351,6,6,10,7,
456,285,-30,-4,747,747.6128540039062,2.3175437450408936,0.0,-2.2997664863997525,-0.30655466405838594,-383,-2014,-538,8,8,6,5,
457,283,-45,35,726,728.23486328125,4.4873881340026855,0.0,-3.542749615968847,2.7547776759119773,-358,-2014,-729,7,7,8,12,
458,283,-47,21,771,772.7166137695312,3.8173129558563232,0.0,-3.487131926204031,1.557310240253821,-331,-1856,558,6,10,9,10,
459,283,-3,-50,801,802.5646362304688,3.5757358074188232,0.0,-0.21417307771746613,-3.5718561174091255,-383,-1851,425,7,6,7,7,
460,283,-4,-37,792,792.8739013671875,2.687737226486206,0.0,-0.2890549103941423,-2.6747179614567718,-688,-1972,590,10,7,9,12,
461,283,0,13,742,742.1138916015625,1.0011088848114014,0.0,0.0,1.003731719213989,-595,-1906,-239,11,7,10,8,
462,291,-27,-12,762,762.5726318359375,2.217942953109741,0.0,-2.029065050709773,-0.901655417259524,-493,-2001,-787,7,8,6,8,
463,291,-20,-38,783,784.1766357421875,3.1365485191345215,0.0,-1.4614562622049796,-2.777553582148543,-485,-2368,109,7,6,7,5,
464,291,-3,0,738,738.006103515625,0.2302582561969757,0.0,-0.23290838992052318,0.0,-554,-2016,228,8,7,8,8,
465,291,-6,18,749,749.2402954101562,1.4484926462173462,0.0,-0.4588359166827464,1.376625483092862,-546,-2130,-186,13,6,8,9,
466,291,-23,3,783,783.3434448242188,1.694174885749817,0.0,-1.6825216366512143,0.21942834041348444,-633,-1837,502,12,9,8,9,
467,294,-17,-80,816,820.0884399414062,5.7210588455200195,11.991937637329102,-1.1877963545635153,-5.598132314554268,-433,-2206,-850,12,6,9,8,
468,294,-12,-57,819,821.0687866210938,4.065645694732666,0.0,-0.8374131623296597,-3.980772754060219,-547,-1715,523,11,8,9,6,
469,294,-17,13,777,777.294677734375,1.5750938653945923,0.0,-1.2532003115673078,0.9582979187788397,-736,-2055,434,11,14,12,8,
470,294,-15,42,762,763.3040161132812,3.347020149230957,0.0,-1.1260153432709534,3.154233024377177,-586,-2004,277,9,6,10,9,
471,294,-32,-6,771,771.6871337890625,2.415457248687744,0.0,-2.376598986940638,-0.44548902684408603,-450,-2249,74,8,10,8,10,
472,297,-12,12,747,747.1927490234375,1.2988182306289673,0.0,-0.9202162592616723,0.9202162592616723,-474,-1878,124,8,13,10,12,
473,297,-4,-1,756,756.01123046875,0.30983230471611023,0.0,-0.3031491785135202,-0.07578696312825924,-592,-2155,-38,7,7,6,8,
474,297,-21,23,739,739.656005859375,2.4106898307800293,0.0,-1.6269361356769285,1.7819302355542954,-556,-2254,-54,14,12,14,12,
475,297,-24,15,787,787.5087280273438,2.0569779872894287,0.0,-1.7464081411264714,1.0914020837213865,-635,-2095,319,8,7,12,14,
476,297,-25,-18,742,742.6392211914062,2.374816417694092,0.0,-1.929153678251952,-1.388864229101847,-486,-2084,-92,7,8,7,10,
477,301,-34,-34,788,789.4656372070312,3.489269971847534,0.0,-2.4683268074832814,-2.4683268074832814,-591,-2133,-254,9,5,9,9,
478,301,-3,-2,728,728.0089111328125,0.28111734986305237,0.0,-0.23610675403327858,-0.15740425519406367,-680,-2353,313,9,6,10,11,
479,301,-25,4,783,783.4092407226562,1.8493887186050415,0.0,-1.8287220599398146,0.2925471249688181,-501,-2075,884,8,7,10,12,
480,301,-18,-50,799,800.7652587890625,3.802579879760742,0.0,-1.2880315312632684,-3.5798927974905523,-461,-2034,232,9,7,6,8,
481,302,-26,-47,818,819.7615356445312,3.7542686462402344,0.0,-1.8175286892069085,-3.28678400908434,-426,-1653,-819,10,7,9,8,
482,302,-48,-43,751,753.7598876953125,4.9020609855651855,0.0,-3.651109019503052,-3.2703474567921798,-590,-1946,-335,14,10,11,9,
483,302,-3,20,768,768.2662353515625,1.5058132410049438,0.0,-0.2237346491131187,1.4917290595690265,-620,-2057,540,7,6,5,8,
484,302,-5,-2,774,774.0187377929688,0.39599084854125977,0.0,-0.3701213905644375,-0.14804769130621961,-564,-1927,-268,7,7,7,6,
485,302,-12,-72,804,807.306640625,5.185016632080078,9.45728874206543,-0.8516896144653364,-5.116747986682327,-576,-1781,550,8,7,7,6,
486,307,-61,-42,767,770.5673217773438,5.512834548950195,55.44796371459961,-4.540425177898196,-3.124471766442172,-534,-2037,558,7,9,6,7,
487,307,-20,22,747,747.5914916992188,2.276697874069214,0.0,-1.5329927844133642,1.6863343287008459,-479,-1852,109,10,9,9,7,
488,307,-18,-24,769,769.5849609375,2.231480836868286,0.0,-1.3402264198238818,-1.7870953572227966,-541,-1845,143,7,8,8,5,
489,307,-13,2,757,757.1142578125,0.9927962422370911,0.0,-0.9838432313605072,0.15135323506900053,-565,-2062,-393,7,5,7,7,
490,307,-15,-33,763,763.860595703125,2.7174289226531982,0.0,-1.1251947666479316,-2.4760399875948313,-491,-2087,-722,8,8,8,8,
491,308,-23,-28,772,772.8499145507812,2.6847386360168457,0.0,-1.7053731793411426,-2.076254326674,-473,-2011,673,8,7,7,6,
492,308,-13,-11,761,761.1904907226562,1.279310703277588,0.0,-0.9785741318019747,-0.8280128307169171,-501,-2144,338,10,10,10,7,
493,308,-15,-39,796,797.0960083007812,3.002351760864258,0.0,-1.0782734431811785,-2.8044651681517254,-628,-1996,750,6,6,5,8,
494,308,-12,12,753,753.1912231445312,1.2884565591812134,0.0,-0.9128869734786343,0.9128869734786343,-602,-2137,403,13,8,8,9,
495,308,-6,2,759,759.0263671875,0.4747794270515442,0.0,-0.45292005661147144,0.15097195456689755,-527,-2092,-108,10,9,6,6,
496,314,-3,27,777,777.4747314453125,1.9998143911361694,0.0,-0.22108468888603472,1.9901574277514462,-769,-2007,-954,10,14,9,8,
497,314,-17,-30,777,777.7647705078125,2.538438558578491,0.0,-1.2524427606438282,-2.210565475930726,-556,-2052,16,8,11,12,12,
498,314,-13,-16,792,792.2682495117188,1.4884434938430786,0.0,-0.9401847792245461,-1.157177235338856,-480,-2013,159,8,6,9,9,
499,314,-18,-20,777,777.4657592773438,1.9807440042495728,0.0,-1.3266387392201808,-1.474073946910223,-460,-2196,534,10,10,14,13,
500,314,-16,29,762,762.719482421875,2.4862611293792725,0.0,-1.202014304878562,2.1790163535978144,-542,-2036,971,9,9,12,9,
501,316,-28,-25,793,793.8878784179688,2.7074975967407227,0.0,-2.0212105683535553,-1.804576353610401,-353,-1955,786,8,8,12,10,
502,316,-21,-46,809,810.5787963867188,3.574089765548706,0.0,-1.4845515331326693,-3.2532587346487922,-354,-2019,-164,11,9,10,12,
503,316,-21,-18,737,737.518798828125,2.1466336250305176,0.0,-1.6316519570166437,-1.3985086570822491,-393,-2003,-758,7,15,8,8,
504,316,-15,-12,779,779.23681640625,1.4099555015563965,0.0,-1.1029891963414766,-0.8823717348570749,-590,-2070,-820,12,13,8,9,
505,316,5,-13,715,715.1356811523438,1.1133731603622437,0.0,0.4005970490334788,-1.0416012136646953,-770,-1916,291,10,14,7,9,
506,318,-16,-16,717,717.35693359375,1.8049638271331787,0.0,-1.278036675987419,-1.278036675987419,-774,-2082,776,8,8,8,12,
507,318,6,-94,832,837.3147583007812,6.456528186798096,356.3529968261719,0.4105715525345948,-6.445820852062301,-504,-1808,811,8,8,6,7,
508,318,-13,-18,765,765.3221435546875,1.6599000692367554,0.0,-0.9732907286172396,-1.347692774130906,-466,-1949,-324,8,10,11,9,
509,318,-27,-27,801,801.9096069335938,2.726656675338745,0.0,-1.929492417291065,-1.929492417291065,-530,-1983,192,11,16,9,7,
510,318,-3,-44,716,717.35693359375,3.5221376419067383,0.0,-0.2396127040020381,-3.5165167065922858,-716,-1911,-976,11,10,10,6,
511,319,7,25,747,747.4509887695312,1.9878816604614258,0.0,0.536592122590136,1.9167299121300927,-552,-2083,60,6,9,9,7,
512,319,-24,44,753,754.6661376953125,3.80546236038208,0.0,-1.8224357906588453,3.3424644581270364,-405,-2056,53,10,9,8,9,
513,319,-24,50,773,774.9871215820312,4.101327419281006,0.0,-1.7746341884998995,3.6991327374489233,-535,-2260,1241,11,10,8,9,
514,319,-36,-9,798,798.8623046875,2.6598281860351562,0.0,-2.5828566296218876,-0.6455091373460154,-531,-1800,926,10,9,9,8,
515,319,-12,-61,765,767.52197265625,4.643517017364502,0.0,-0.8958406150002369,-4.558478490574644,-546,-2294,-784,10,8,9,7,
516,323,-10,24,734,734.4603271484375,2.026104688644409,0.0,-0.7801312925193239,1.8725906070675078,-533,-2175,-307,9,9,10,11,
517,323,-25,25,759,759.822998046875,2.6644182205200195,0.0,-1.8855089239171008,1.8855089239171008,-541,-2093,155,8,10,8,7,
518,323,-21,-18,786,786.4865112304688,2.0127580165863037,0.0,-1.5300382149492018,-1.311419965462781,-704,-2566,-398,14,13,11,9,
519,323,-24,-36,792,793.180908203125,3.1243698596954346,0.0,-1.7339153728700851,-2.601369733397672,-437,-1997,417,6,12,8,6,
520,330,3,-43,765,766.2134399414062,3.2224066257476807,0.0,0.2243340745004182,-3.217137074179456,-621,-1781,276,16,14,14,17,
521,330,9,-72,828,831.1732788085938,5.005712032318115,352.8800964355469,0.620414675471529,-4.96944864306872,-728,-1812,931,13,8,10,10,
522,330,-6,-33,780,780.7208251953125,2.459691047668457,0.0,-0.4403341784201109,-2.422535871916616,-634,-2280,464,6,8,9,9,
523,330,-20,-26,778,778.6912231445312,2.4117212295532227,0.0,-1.4717536321684122,-1.913424968071975,-399,-1936,-343,5,7,8,7,
524,330,-33,-19,777,777.9324951171875,2.8031094074249268,0.0,-2.43122405130348,-1.3995147999257926,-373,-2212,-369,6,8,7,7,
525,323,-21,47,774,775.7100219726562,3.8025527000427246,0.0,-1.5512993167214668,3.473659007608412,-559,-1104,-588,6,9,6,8,
526,323,-32,-13,768,768.7763061523438,2.5724880695343018,0.0,-2.385602681005674,-0.9689172724094273,-586,-2006,-398,9,5,6,9,
527,323,-20,-47,767,768.6989135742188,3.807443141937256,0.0,-1.490889233440184,-3.505380729329612,-572,-2265,696,9,7,9,7,
528,323,-10,3,756,756.0720825195312,0.7885675430297852,0.0,-0.7578305185589176,0.22734312328503273,-569,-2038,1054,8,5,5,8,
529,323,-11,22,767,767.394287109375,1.8341774940490723,0.0,-0.8213185397791127,1.64280590808389,-541,-2036,565,10,7,9,9,
530,337,-17,33,737,737.9342651367188,2.880880117416382,0.0,-1.320055803870849,2.563089349491203,-547,-2160,-419,7,9,8,8,
531,337,-8,-12,750,750.138671875,1.099015712738037,0.0,-0.6110536005121628,-0.9166021222889777,-639,-2205,-564,5,8,5,6,
532,337,-8,-1,762,762.0426635742188,0.6035527586936951,0.0,-0.6015078763891647,-0.07518712499617887,-591,-1995,-191,6,6,5,9,
533,337,-4,13,756,756.122314453125,1.0280957221984863,0.0,-0.3031046346896219,0.9851340060944694,-556,-1619,-18,7,12,13,15,
534,337,-39,24,774,775.3534545898438,3.3833510875701904,0.0,-2.883173697423058,1.7737953677850689,-441,-1952,665,8,11,11,12,
535,335,-29,-40,785,786.55322265625,3.598795175552368,0.0,-2.1129584146949814,-2.9150222432459483,-421,-1903,730,9,7,8,8,
536,335,-28,-84,793,797.9279174804688,6.368600845336914,18.4301815032959,-2.0109726323179253,-6.042876115128712,-502,-2444,526,15,7,10,10,
537,335,-29,-9,779,779.591552734375,2.22959566116333,0.0,-2.131835611754469,-0.661466205049004,-430,-2164,-65,11,8,10,12,
538,335,-17,31,763,763.8187255859375,2.6504569053649902,0.0,-1.2753140112290837,2.326019447078907,-508,-1975,-482,10,9,9,8,
539,335,0,-26,798,798.4234619140625,1.8635207414627075,0.0,0.0,-1.8661196433229543,-637,-2165,-246,10,9,8,8,
540,337,-25,-54,786,788.2493286132812,4.326949119567871,0.0,-1.8174893261481926,-3.928195271243821,-527,-1935,-62,9,7,7,6,
541,337,-39,-64,765,768.6624755859375,5.592893600463867,31.352693557739258,-2.908292405930108,-4.776062447539808,-561,-2035,799,9,13,10,9,
542,337,-16,21,764,764.4559936523438,1.9765228033065796,0.0,-1.1992834085655513,1.5741425616939038,-591,-1799,831,8,9,7,9,
543,337,-6,-9,745,745.0784912109375,0.8291879296302795,0.0,-0.46139887782323036,-0.6921076678082803,-622,-2034,631,10,8,9,10,
544,337,6,-28,805,805.5091552734375,2.0346834659576416,0.0,0.42678330054544517,-1.9920382860532309,-710,-2075,282,9,7,12,14,
545,341,-36,6,747,747.8910522460938,2.7945303916931152,0.0,-2.759018798406471,0.4596637060861301,-512,-2008,-379,8,6,6,8,
546,341,-24,2,726,726.3993530273438,1.897344946861267,0.0,-1.8933786665274588,0.15775303971564064,-510,-1897,-698,10,8,9,7,
547,341,-13,18,745,745.330810546875,1.7045024633407593,0.0,-0.99939906683081,1.3838476960237,-489,-1934,67,9,13,14,13,
548,341,-9,-36,763,763.90185546875,2.781771183013916,0.0,-0.6750526419121496,-2.7011485594616347,-514,-2092,423,11,11,14,14,
549,341,-18,-9,744,744.2721557617188,1.546816110610962,0.0,-1.3858164994518365,-0.6928575777530688,-599,-2108,817,8,8,11,10,
550,346,-21,13,760,760.4011840820312,1.858718991279602,0.0,-1.5825387369142485,0.9795900017168263,-498,-2120,235,7,8,9,9,
551,346,0,12,793,793.0907592773438,0.8643302321434021,0.0,0.0,0.8669569744923217,-704,-2004,305,6,8,9,7,
552,346,-36,-41,772,773.9257202148438,4.040182113647461,0.0,-2.6661378609358763,-3.036760690737824,-666,-1990,173,7,8,11,11,
553,346,-25,-15,765,765.5553588867188,2.179938554763794,0.0,-1.8713855122361693,-1.122703523369662,-615,-1876,-417,10,11,9,8,
554,346,-11,5,758,758.0963134765625,0.9106266498565674,0.0,-0.8313926508803161,0.37789522862200714,-582,-1942,99,11,10,14,13,
555,345,-27,36,763,764.3258666992188,3.372709274291992,0.0,-2.024408797164295,2.699648948809405,-406,-2093,222,10,10,11,10,
556,345,-23,-25,819,819.7042236328125,2.3725762367248535,0.0,-1.607867672509669,-1.7477238961967538,-660,-1925,1382,14,14,15,20,
557,345,-2,-20,801,801.2521362304688,1.4348249435424805,0.0,-0.1430157519366902,-1.4303045852576455,-560,-1710,179,8,16,11,14,
558,345,-12,-28,780,780.5946655273438,2.233973979949951,0.0,-0.8808367342586719,-2.0556457364459444,-469,-2065,-203,8,7,7,9,
559,342,-46,23,733,734.802001953125,4.010934352874756,0.0,-3.5891714211999015,1.7937052218781189,-525,-2004,-513,6,9,7,6,
560,342,-18,-2,729,729.2249145507812,1.4205085039138794,0.0,-1.4144178906208986,-0.1571417786408732,-544,-1758,-708,12,10,11,11,
561,342,-24,-22,741,741.7149047851562,2.5132274627685547,0.0,-1.854268760484458,-1.6996989562190785,-487,-2192,794,9,6,7,7,
562,342,-24,-26,758,758.8253784179688,2.670060157775879,0.0,-1.8124433541887277,-1.9635371783653952,-600,-1837,148,11,14,8,12,
563,342,-27,27,740,740.9844970703125,2.951253652572632,0.0,-2.0882064636299362,2.0882064636299362,-603,-1802,-79,7,10,6,7,
564,351,4,-6,750,750.03466796875,0.5482334494590759,0.0,0.3055648157263179,-0.4583499395702045,-687,-2036,14,7,8,10,11,
565,351,5,-45,756,757.3546142578125,3.4248046875,0.0,0.3782653148153038,-3.406369430915657,-531,-2081,-161,10,10,10,11,
566,351,-9,17,751,751.2462768554688,1.4645849466323853,0.0,-0.6864251481376872,1.2966604998559286,-534,-1932,475,9,11,11,11,
567,351,-25,26,755,755.861083984375,2.7325923442840576,0.0,-1.8953955694460538,1.9712407439860178,-499,-2002,232,13,15,14,13,
568,351,14,12,780,780.2178955078125,1.351596713066101,0.0,1.0281537320827339,0.8812620782607742,-568,-1982,-393,14,12,14,16,
569,358,-21,-47,795,796.6649169921875,3.7023234367370605,0.0,-1.5104854234782923,-3.382182555159035,-385,-1914,-661,12,14,14,12,
570,358,-23,-6,736,736.3837280273438,1.8471688032150269,0.0,-1.7898511730103073,-0.4668469254332178,-513,-2146,738,14,15,17,16,
571,358,-13,3,743,743.1197509765625,1.0260944366455078,0.0,-1.0023729084177564,0.23130565383650872,-674,-1999,291,15,15,17,15,
572,358,2,11,765,765.0816650390625,0.8346795439720154,0.0,0.1497770634017199,0.8238012940252456,-713,-2094,-8,14,18,18,18,
573,358,-39,-6,786,786.9898071289062,2.8713858127593994,0.0,-2.8405081051534578,-0.4368264903978553,-642,-1952,205,14,19,21,20,
574,357,-49,-10,787,788.5873413085938,3.633432149887085,0.0,-3.5624499344123017,-0.7265817235986195,-662,-1844,172,14,12,17,14,
575,357,-27,17,744,744.683837890625,2.4530177116394043,0.0,-2.0778283767631582,1.3080892036941771,-468,-1861,19,12,13,11,10,
576,357,23,36,762,763.1965942382812,3.2062525749206543,0.0,1.7269502239424903,2.703646505810079,-606,-1604,364,8,7,9,8,
577,357,20,-57,732,734.48828125,4.715024471282959,0.0,1.5603479504544502,-4.450917283914183,-898,-1962,545,9,8,8,8,
578,357,-20,-62,798,800.6547241210938,4.664561748504639,0.0,-1.4313720370145926,-4.441237935367363,-568,-1931,418,14,15,15,12,
579,367,-35,-27,784,785.2451782226562,3.2245171070098877,0.0,-2.55463759820568,-1.9704559359049554,-405,-1891,-242,10,13,11,12,
580,367,-23,0,751,751.3521118164062,1.7515774965286255,0.0,-1.7541826273148042,0.0,-360,-2072,-1,11,10,13,12,
581,367,-12,1,770,770.0941772460938,0.893311619758606,0.0,-0.892848207749114,0.07440102695064055,-644,-1934,284,8,9,10,8,
582,367,-29,11,755,755.6368408203125,2.349858283996582,0.0,-2.1994504823634955,0.8340988978426539,-539,-2042,336,9,8,9,7,
583,367,-24,-33,734,735.13330078125,3.1793408393859863,0.0,-1.870875740981729,-2.5728616244278553,-611,-2159,481,10,11,10,7,
584,366,-59,12,753,755.4031982421875,4.568976879119873,0.0,-4.4795909880287645,0.910213607054302,-719,-2185,490,11,16,9,7,
585,366,-1,-3,793,793.0062866210938,0.22583216428756714,0.0,-0.0722513734461667,-0.2167545799128805,-736,-1970,65,11,10,11,11,
586,366,1,-36,750,750.8641967773438,2.7465741634368896,0.0,0.07630647303561253,-2.7480857410565283,-556,-1976,-116,8,8,8,11,
587,366,-21,0,735,735.2999267578125,1.6339718103408813,0.0,-1.6365770416167182,0.0,-492,-2176,-500,7,14,7,9,
588,366,4,-17,729,729.2091674804688,1.3697245121002197,0.0,0.3142915363195745,-1.3358533537030912,-622,-2082,284,9,8,12,9,
589,367,19,18,770,770.4447021484375,1.9441535472869873,0.0,1.4131192256748584,1.3387306157525536,-639,-1941,1173,10,11,8,8,
590,367,0,-16,788,788.1624145507812,1.160584807395935,0.0,0.0,-1.1632062452411367,-642,-2020,252,8,9,6,7,
591,367,-61,-33,795,798.0194091796875,4.983233451843262,0.0,-4.383922236385544,-2.369992454526667,-642,-1813,-668,9,11,5,5,
592,367,-5,17,759,759.2068481445312,1.3348007202148438,0.0,-0.37734245775866815,1.2830623167472246,-503,-1760,-970,11,10,10,12,
593,367,-36,3,770,770.846923828125,2.683502435684204,0.0,-2.6767941803465916,0.22298560744260787,-367,-1909,303,9,7,7,9,
594,368,-1,-20,798,798.251220703125,1.434865951538086,0.0,-0.07177664565211778,-1.4356827705575725,-795,-1932,788,12,8,12,11,
595,368,0,-27,784,784.4647827148438,1.9698221683502197,0.0,0.0,-1.9724169533993854,-694,-1990,297,9,9,11,9,
596,368,-19,-6,786,786.2525024414062,1.4495035409927368,0.0,-1.3847024776957186,-0.4372361448848468,-779,-1839,297,7,5,8,11,
597,368,-62,55,741,745.6205444335938,6.379433631896973,131.57469177246094,-4.769778387031834,4.230211536934265,-282,-1695,-126,12,15,8,6,
598,373,-5,-14,732,732.1509399414062,1.1608307361602783,0.0,-0.39128697167853893,-1.0956617812038578,-554,-1856,319,14,20,10,9,
599,373,0,-14,760,760.12890625,1.0527056455612183,0.0,0.0,-1.0553292106684,-655,-1907,-133,7,10,10,8,
600,373,10,16,774,774.2299194335938,1.393822193145752,0.0,0.7400562769485387,1.184141414607554,-742,-1693,27,9,10,8,7,
601,373,-8,36,757,757.8977661132812,2.786456823348999,0.0,-0.604797610348466,2.722563149850442,-605,-1905,180,12,11,13,9,
602,373,-37,-3,759,759.9072265625,2.7974400520324707,0.0,-2.790843784568586,-0.22619574861491262,-376,-1893,12,11,6,8,11,
603,370,-6,-70,748,751.292236328125,5.363324165344238,4.893931865692139,-0.4575827119025713,-5.346162492740271,-774,-2237,1733,12,11,11,10,
604,370,13,-18,729,729.3380737304688,1.7419466972351074,0.0,1.0213159367577889,-1.4141984607059657,-585,-1990,-49,10,8,9,7,
605,370,-17,13,750,750.3052978515625,1.6318612098693848,0.0,-1.2982870388703138,0.9927724545963533,-661,-2020,-330,7,6,7,7,
606,370,-1,12,788,788.0919799804688,0.8728477358818054,0.0,-0.07270191159100874,0.8724564204866689,-898,-1913,-134,9,6,10,10,
607,370,-8,-47,829,830.3698120117188,3.288907289505005,0.0,-0.5520110784732968,-3.2447490271611774,-767,-1707,-1035,9,7,11,11,
608,376,-54,9,709,711.1104125976562,4.412759304046631,0.0,-4.35509509145436,0.7251697959354437,-822,-1785,221,8,10,8,8,
609,376,-46,21,761,762.6781616210938,3.799048662185669,0.0,-3.4578233767975792,1.5778128911443436,-529,-1795,689,11,7,9,7,
610,376,-12,42,754,755.2642211914062,3.312991142272949,0.0,-0.91038115203209,3.1878444371334633,-626,-2003,877,12,8,7,6,
611,376,-15,-9,799,799.1914672851562,1.2515792846679688,0.0,-1.075445867945578,-0.6452432704452434,-562,-1937,492,10,12,11,11,
612,376,-28,-35,832,833.2064819335938,3.081120014190674,0.0,-1.9257939254184442,-2.40749755118456,-578,-1882,1,7,9,10,10,
613,387,-15,-45,766,767.46728515625,3.5409350395202637,0.0,-1.1199062953904686,-3.361432939298287,-614,-1875,-714,10,7,8,9,
614,387,-15,28,783,783.64404296875,2.3205149173736572,0.0,-1.0967851806842943,2.0476431551224916,-569,-1767,-1553,12,11,15,12,
615,387,-40,-52,762,764.8189086914062,4.918269634246826,0.0,-2.9979347692568523,-3.89854464286122,-416,-2098,499,13,12,13,12,
616,387,-8,-18,701,701.2766723632812,1.6069508790969849,0.0,-0.6536309891272802,-1.4707993548561629,-563,-2015,941,11,11,12,13,
617,387,18,-30,754,754.8112182617188,2.6540496349334717,0.0,1.3664632398644292,-2.2778228117340538,-711,-2271,466,16,11,17,13,
618,381,-16,13,756,756.281005859375,1.5594112873077393,0.0,-1.2122489290671064,0.9849272784806595,-619,-1806,12,10,10,9,13,
619,381,-60,-11,738,740.5167236328125,4.722571849822998,0.0,-4.647456734169831,-0.8511310350787243,-335,-1778,89,7,8,10,9,
620,381,-38,-60,757,760.3242797851562,5.3572587966918945,32.34308624267578,-2.8647606408781736,-4.52612779894739,-252,-1914,-1684,9,11,14,13,
621,381,22,-13,765,765.4266967773438,1.910582184791565,0.0,1.6470300846105723,-0.9731578066363252,-549,-2359,-364,11,9,12,14,
622,381,-14,27,748,748.6180419921875,2.3257880210876465,0.0,-1.0715580066356294,2.0669039520431363,-681,-2055,902,14,11,12,12,
623,379,-22,-17,802,802.4817504882812,1.9828749895095825,0.0,-1.570957916382003,-1.2138607370838301,-618,-1853,1494,8,13,11,11,
624,379,-11,-38,808,808.9678344726562,2.8004181385040283,0.0,-0.7791075868313683,-2.6923703696881414,-515,-1967,292,12,16,16,12,
625,379,-15,16,749,749.321044921875,1.6746126413345337,0.0,-1.1470305421722882,1.2235105070156589,-734,-1834,1406,12,15,16,17,
626,379,-21,9,751,751.3474731445312,1.739938497543335,0.0,-1.6016133029909938,0.6863327261831075,-549,-1757,-879,8,13,15,13,
627,379,1,24,740,740.3897705078125,1.856601595878601,0.0,0.07738599296863138,1.8575886753911148,-842,-1868,-281,9,10,10,12,
628,397,10,-8,795,795.1031494140625,0.9202370047569275,0.0,0.7206271412822132,-0.5764962410499612,-795,-1908,-467,6,10,11,12,
629,397,-19,-31,802,802.8237915039062,2.593190908432007,0.0,-1.356115133589995,-2.2129524796825235,-657,-1924,-1406,11,10,15,14,
630,397,-47,-59,762,765.7244873046875,5.650931358337402,38.53700637817383,-3.5190142676888834,-4.419089217602052,-635,-1768,1204,17,11,14,12,
631,397,-37,-25,776,777.2837524414062,3.290847063064575,0.0,-2.7284055686741224,-1.843138492579393,-526,-2065,582,16,11,13,16,
632,397,-17,-23,770,770.531005859375,2.12461256980896,0.0,-1.2642026176967882,-1.710507071620571,-466,-1834,-4,13,12,15,13,
633,391,-14,-4,765,765.1385498046875,1.087752342224121,0.0,-1.0484188502642384,-0.29953289130572175,-538,-2170,487,10,12,12,10,
634,391,3,11,728,728.0892944335938,0.8946503400802612,0.0,0.23608069721250793,0.865659707404249,-780,-2153,-63,13,11,11,12,
635,391,7,48,750,751.5670166015625,3.6980202198028564,0.0,0.5336533398986584,3.6617765222391427,-785,-2020,-383,12,11,12,14,
636,391,-33,15,725,725.9056396484375,2.859767436981201,0.0,-2.605590149107132,1.1840352492813413,-450,-1820,-371,12,9,11,13,
637,391,-27,-14,717,717.644775390625,2.4263381958007812,0.0,-2.156152077925483,-1.1178118291595622,-602,-2078,489,12,15,18,21,
638,395,-16,4,744,744.1828002929688,1.2672618627548218,0.0,-1.231959603312929,0.307967652377255,-507,-2125,1260,17,11,18,17,
639,395,-24,24,772,772.7457275390625,2.5148191452026367,0.0,-1.7797831545810643,1.7797831545810643,-576,-2033,537,14,13,12,14,
640,395,5,22,794,794.3204345703125,1.6249762773513794,0.0,0.36066147397678483,1.5871029617696384,-987,-1995,-411,10,9,9,7,
641,395,-33,-31,800,801.2802124023438,3.2367024421691895,0.0,-2.360342321765559,-2.217217513099359,-865,-2022,-456,12,8,13,12,
642,399,9,-38,853,853.8934326171875,2.618654727935791,0.0,0.6039062275356334,-2.550621443652441,-686,-2117,-647,8,10,13,11,
643,399,3,21,755,755.2979736328125,1.6068073511123657,0.0,0.22757613665926393,1.5932340851552935,-745,-2066,-546,11,10,10,14,
644,399,-38,16,777,778.0932006835938,3.0349533557891846,0.0,-2.7992868794016723,1.1782613071465242,-550,-2085,1338,9,9,10,9,
645,399,-29,-32,777,778.19921875,3.1786646842956543,0.0,-2.135651664550783,-2.356699970600242,-533,-1769,724,13,8,10,12,
646,399,-29,1,763,763.5515747070312,2.175341844558716,0.0,-2.1766405896896766,0.0750385411358646,-618,-1678,488,15,12,12,14,
647,399,-34,-43,781,782.9214477539062,4.012430191040039,0.0,-2.4889716960171695,-3.148411406551375,-623,-1835,-334,8,9,11,11,
648,399,-39,-5,770,771.0032348632812,2.920639991760254,0.0,-2.8994552662572572,-0.3715690023374794,-546,-1727,-389,8,10,10,12,
649,399,-34,12,754,754.861572265625,2.7351675033569336,0.0,-2.5815538161140594,0.9108667568402277,-294,-1307,135,13,11,14,12,
650,399,-18,-6,728,728.2471923828125,1.4903355836868286,0.0,-1.4163172271663318,-0.4720630046717302,-604,-2186,-358,9,11,12,12,
651,399,-10,7,737,737.10107421875,0.9462471604347229,0.0,-0.77733622857004,0.5441268464222456,-560,-2224,-55,10,13,16,15,
652,403,-22,-23,737,737.6869506835938,2.4702234268188477,0.0,-1.7089825392310833,-1.7866882048036676,-703,-1742,466,13,7,8,9,
653,403,-58,-1,780,782.154052734375,4.250728607177734,0.0,-4.25262548147629,-0.07325384705546646,-455,-1774,489,16,11,20,15,
654,403,-11,13,754,754.1922607421875,1.2912092208862305,0.0,-0.83569659368946,0.9876553223322666,-349,-2090,191,10,17,14,14,
655,403,27,14,738,738.6264038085938,2.3573033809661865,0.0,2.094875994913503,1.0860550339018655,-711,-2073,-163,10,10,12,10,
656,403,-29,24,762,762.92919921875,2.8255608081817627,0.0,-2.1784170028657943,1.8026909492044652,-517,-1838,-241,10,11,11,12,
657,404,-17,-5,783,783.2005004882812,1.2938183546066284,0.0,-1.2437489131531592,-0.3657822600801405,-585,-1732,64,7,7,9,10,
658,404,-15,-102,826,832.4091796875,7.112123012542725,8.360819816589355,-1.0325249402241596,-7.038478937604013,-740,-1869,-87,9,8,13,11,
659,404,-34,-75,838,842.0361938476562,5.609716892242432,24.38178825378418,-2.3141358941640116,-5.110095777288852,-573,-1926,488,9,10,10,10,
660,404,-33,-26,776,777.1364135742188,3.0963516235351562,0.0,-2.433716119338216,-1.9172545428077548,-459,-2212,718,8,7,9,8,
661,404,-24,45,783,784.6591796875,3.7240986824035645,0.0,-1.7527523730065098,3.2877020247372357,-655,-2092,795,11,9,9,10,
662,410,-3,-60,801,803.2496337890625,4.286622524261475,0.0,-0.21399043022257652,-4.2837885929934885,-860,-1961,-73,13,13,12,14,
663,410,-36,-26,832,833.1842651367188,3.0526440143585205,0.0,-2.4763914940306977,-1.7882384853482889,-640,-1614,-872,14,10,12,12,
664,410,13,11,800,800.1812133789062,1.2168331146240234,0.0,0.930886499488513,0.7876633488462229,-560,-2215,-354,13,8,13,8,
665,410,-34,-15,738,738.93505859375,2.88010835647583,0.0,-2.6372338835333795,-1.1631546433970668,-666,-1933,-257,8,8,9,11,
666,410,-8,-7,675,675.0836791992188,0.8996092081069946,0.0,-0.6789927915198424,-0.594115433190243,-709,-1321,401,23,10,17,12,
667,416,-24,-9,769,769.4270629882812,1.9064565896987915,0.0,-1.7874622046232675,-0.6702048865506192,-620,-2210,702,9,8,11,15,
668,416,-34,-31,788,789.3421020507812,3.3391175270080566,0.0,-2.4687132737424835,-2.2507680782242097,-541,-1867,-210,10,9,11,7,
669,416,-37,9,798,798.9080200195312,2.729388952255249,0.0,-2.6545014087420706,0.645472219827127,-441,-1646,-386,7,6,5,8,
670,416,-60,-49,727,731.1156005859375,6.079777717590332,50.75881576538086,-4.707350500917076,-3.8428933691094134,-384,-1992,-362,6,7,7,8,
671,416,-26,4,750,750.461181640625,2.0062007904052734,0.0,-1.9854303700851856,0.3053911458901792,-354,-1930,253,13,10,11,12,
672,419,-13,3,712,712.125,1.0708744525909424,0.0,-1.0460052963748878,0.24137314321420594,-550,-2389,1087,9,7,9,10,
673,419,-24,42,761,762.535888671875,3.6346068382263184,0.0,-1.803621100079335,3.1574134982743,-418,-2416,-575,7,8,9,10,
674,419,1,6,741,741.0249633789062,0.4676826298236847,0.0,0.07731965796631131,0.4639228761907923,-528,-1748,345,5,5,8,6,
675,419,-15,-147,838,850.927734375,9.997723579406738,5.821198463439941,-1.0100519466523719,-9.94790129750175,-445,-2141,344,15,8,8,9,
676,419,-9,-32,780,780.7080078125,2.4377312660217285,0.0,-0.6605202327059392,-2.3491224513880593,-212,-2475,-264,9,8,13,11,
677,412,-29,34,762,763.3092651367188,3.3537344932556152,0.0,-2.177331939062035,2.5529643164599225,-613,-2085,899,9,4,6,7,
678,412,-15,12,782,782.2359008789062,1.4045389890670776,0.0,-1.098759817167834,0.8789884563892443,-543,-2014,477,7,7,6,7,
679,412,-8,-27,762,762.5201416015625,2.1138477325439453,0.0,-0.6011311795434886,-2.0292046939722437,-533,-2119,-241,8,4,5,4,
680,412,-3,-97,790,795.9384155273438,7.000876426696777,1.7662140130996704,-0.21595608017292298,-6.999964095888091,-736,-1801,-451,8,6,6,7,
681,416,5,17,705,705.22265625,1.437201976776123,0.0,0.4062281517844094,1.3812979435500785,-602,-2142,604,12,8,11,11,
682,416,-10,3,763,763.0714111328125,0.7813068628311157,0.0,-0.7508788526832806,0.2252577880084942,-648,-2489,349,12,7,12,10,
683,416,39,3,763,764.001953125,2.932128667831421,0.0,2.926048760202306,0.22498342740917432,-1025,-2132,-49,8,5,8,7,
684,416,-2,-21,800,800.278076171875,1.5078555345535278,0.0,-0.1431898256996718,-1.5036642049211049,-781,-1858,845,7,8,8,9,
685,416,22,-75,807,810.7761840820312,5.529500961303711,343.6566467285156,1.55488274854855,-5.307674080031955,-685,-1806,-843,7,8,9,7,
686,419,-1,42,760,761.1602783203125,3.161458969116211,0.0,-0.07527428336577698,3.163125513515636,-858,-2103,-144,13,9,7,10,
687,419,-54,-27,777,779.342041015625,4.440497398376465,0.0,-3.973163295316077,-1.9853871799518055,-519,-1790,717,10,10,8,7,
688,419,-27,-39,780,781.4409790039062,3.477494239807129,0.0,-1.9800523132876953,-2.860694710043498,-280,-2236,-1139,9,6,8,7,
689,419,-22,-53,801,803.0529174804688,4.095207691192627,0.0,-1.5698403360381459,-3.784165470885299,-575,-2117,817,10,6,7,8,
690,419,-16,6,748,748.1951904296875,1.3060721158981323,0.0,-1.2253518938009782,0.45947685767402857,-624,-1812,-564,11,8,7,8,
691,430,-25,13,734,734.5406494140625,2.195894479751587,0.0,-1.9504313732961176,1.014081385315097,-594,-2027,410,8,5,6,6,
692,430,-38,-32,774,775.5926513671875,3.669926881790161,0.0,-2.808318983588935,-2.364624601213427,-329,-2035,574,8,9,7,7,
693,430,0,-8,754,754.0424194335938,0.6052535176277161,0.0,0.0,-0.6078899698387342,-456,-2243,-171,10,8,6,6,
694,430,0,16,736,736.1738891601562,1.2427475452423096,0.0,0.0,1.2453642667683475,-700,-2220,468,6,9,6,5,
695,430,-6,-6,796,796.0452270507812,0.608108639717102,0.0,-0.43185728828181014,-0.43185728828181014,-542,-1902,-1110,7,5,8,5,
696,431,18,-16,827,827.3505859375,1.665439486503601,0.0,1.2466364560397702,-1.1081029416761663,-915,-1830,-908,10,11,11,6,
697,431,-22,-40,801,802.2998046875,3.259331703186035,0.0,-1.5713142884515263,-2.8577617143738,-661,-1690,707,7,11,9,8,
698,431,-36,41,743,745.0006713867188,4.197424411773682,0.0,-2.769731236185459,3.1547815527657215,-533,-1745,1235,8,8,12,8,
699,431,-12,-10,734,734.1661987304688,1.216525673866272,0.0,-0.9365454009772585,-0.7804438806952094,-530,-2019,250,11,9,11,15,
700,431,-22,-9,742,742.380615234375,1.832223892211914,0.0,-1.698174314797943,-0.6946229828078317,-604,-2117,147,10,7,7,7,
701,431,-24,-15,742,742.53955078125,2.1817691326141357,0.0,-1.8522087115119465,-1.1575075607951197,-570,-2233,-89,6,6,5,6,
702,431,-16,27,766,766.6427001953125,2.3436357975006104,0.0,-1.1958622417193414,2.018288392963073,-553,-2044,-546,9,6,6,6,
703,431,-6,18,768,768.2343139648438,1.4126057624816895,0.0,-0.44749128558170304,1.3425830697761436,-730,-2087,-447,7,8,6,6,
704,431,-27,-71,810,813.553955078125,5.35494327545166,20.816200256347656,-1.9018655169756615,-5.006652683123885,-668,-1891,261,8,6,8,9,
705,431,-58,-88,806,812.8616333007812,7.447426795959473,33.38418960571289,-4.091694660191265,-6.214993668040521,-635,-2058,313,12,8,10,13,
706,429,-39,-9,789,790.0145263671875,2.901487350463867,0.0,-2.829623808282149,-0.6527388207763041,-477,-2026,876,11,8,12,14,
707,429,-12,11,780,780.1698608398438,1.1929881572723389,0.0,-0.8813163756434251,0.8078682556086785,-577,-1694,709,8,10,9,10,
708,429,-16,-33,768,768.8751220703125,2.7313902378082275,0.0,-1.192389487306204,-2.4598814239538123,-464,-2406,367,6,6,7,12,
709,429,-15,-18,759,759.361572265625,1.7655866146087646,0.0,-1.1318621112385305,-1.358273412867048,-546,-2266,-754,8,10,8,8,
710,429,-29,-5,773,773.5599365234375,2.177588939666748,0.0,-2.14846574092964,-0.3703409043819178,-577,-2156,-1064,9,9,9,8,
711,448,-21,-46,795,796.6065673828125,3.636908769607544,0.0,-1.5105961282832359,-3.310382997684342,-707,-2054,90,7,8,7,9,
712,448,-30,-15,780,780.7208251953125,2.459691047668457,0.0,-2.2021913904607104,-1.1008923471756633,-708,-1593,679,10,5,7,8,
713,448,-14,-50,763,764.7646484375,3.890500783920288,0.0,-1.0489314608680915,-3.748648367305462,-564,-2264,942,5,4,6,9,
714,448,-22,16,773,773.478515625,2.012887716293335,0.0,-1.6298800278598193,1.1852919707427039,-437,-1844,754,7,8,6,8,
715,448,-18,-48,757,758.7338256835938,3.871614694595337,0.0,-1.3593974303560707,-3.6271419205995286,-452,-2072,-56,9,8,9,9,
716,440,-13,8,729,729.1597900390625,1.1969088315963745,0.0,-1.0215656554036563,0.6286350928092633,-548,-1987,-490,7,9,5,5,
717,440,-6,-3,784,784.0286865234375,0.48759323358535767,0.0,-0.4384763381434167,-0.21923656407247744,-533,-1959,-858,5,5,4,6,
718,440,-9,9,750,750.1079711914062,0.9696207046508789,0.0,-0.6874668635575455,0.6874668635575455,-429,-2041,-221,7,7,7,9,
719,440,-21,12,754,754.3878173828125,1.8346965312957764,0.0,-1.5951567219177654,0.9114388171661819,-547,-1927,197,8,6,9,10,
720,440,-33,-42,753,754.8920288085938,4.054901599884033,0.0,-2.50547539621211,-3.189417606570108,-505,-2192,1065,8,8,8,10,
721,443,-27,-1,770,770.473876953125,2.0070273876190186,0.0,-2.008248284592831,-0.07436435818940175,-517,-2284,756,8,7,7,6,
722,443,-9,21,780,780.3345336914062,1.6751863956451416,0.0,-0.6608363719122433,1.5421035255964497,-679,-1771,192,7,9,6,7,
723,443,1,20,801,801.250244140625,1.4294836521148682,0.0,0.07150798735086682,1.4303079277708315,-791,-1950,-380,8,10,9,7,
724,443,-30,-67,786,789.420654296875,5.333256721496582,24.11638641357422,-2.177910261231593,-4.868685433373913,-637,-1965,-608,9,9,8,7,
725,443,-23,-26,729,729.8259887695312,2.723644495010376,0.0,-1.8059388740969307,-2.0415901009178503,-499,-2060,-419,9,12,9,8,
726,459,-12,-9,738,738.1524047851562,1.1617664098739624,0.0,-0.9314873469932569,-0.6986020455350166,-583,-2228,309,6,7,10,8,
727,459,-26,46,759,760.8370361328125,3.9798011779785156,0.0,-1.9583436180464098,3.466201116371835,-426,-1885,483,11,7,11,10,
728,459,-19,-51,801,802.8468017578125,3.884469509124756,0.0,-1.3560762030653237,-3.642106490307527,-311,-1923,936,9,7,11,10,
729,459,-22,-39,774,775.2941284179688,3.30840802192688,0.0,-1.6260620487986825,-2.8833945212096443,-438,-2052,985,7,6,7,7,
730,459,-5,-26,759,759.461669921875,1.9952585697174072,0.0,-0.3772158430710676,-1.961891570453773,-487,-2025,-184,7,9,5,4,
731,450,-21,35,737,738.12939453125,3.1673672199249268,0.0,-1.6303018933128621,2.717822285432304,-492,-2017,-774,8,12,7,10,
732,450,-24,-48,736,737.9539184570312,4.167821407318115,0.0,-1.8637223533918497,-3.7294203279299474,-571,-2192,-740,7,14,7,6,
733,450,-46,-99,824,831.19970703125,7.5442681312561035,24.917194366455078,-3.1724661948211446,-6.8404493259516155,-697,-1900,1132,11,9,10,11,
734,450,-12,-74,805,808.483154296875,5.317902088165283,9.205985069274902,-0.8504501343641918,-5.251600068514284,-569,-1970,38,8,8,7,5,
735,450,-3,14,767,767.1336059570312,1.0668103694915771,0.0,-0.22406497493661218,1.0456919352004899,-640,-1996,363,8,13,9,10,
736,456,-11,-5,750,750.0973510742188,0.9203667640686035,0.0,-0.8402591824052679,-0.38192512998529754,-558,-1872,1022,12,7,10,11,
737,456,-33,20,742,743.002685546875,2.9744086265563965,0.0,-2.545593613544715,1.5424628071856419,-557,-1957,-102,8,10,5,7,
738,456,-25,15,751,751.565673828125,2.2205862998962402,0.0,-1.9062322501264284,1.1436042934227182,-557,-2207,47,13,13,7,7,
739,456,-18,45,756,757.552001953125,3.665616989135742,0.0,-1.3615185865058055,3.405480891801994,-561,-2266,-1088,12,10,9,6,
740,462,-3,-4,802,802.0155639648438,0.35455772280693054,0.0,-0.2143196995243182,-0.2857601176745602,-607,-1828,662,10,7,8,13,
741,462,-21,-86,747,752.2273559570312,6.756129741668701,13.717390060424805,-1.5997393603903018,-6.564816846699091,-686,-2187,155,9,10,13,13,
742,462,-21,21,735,735.5997314453125,2.3112528324127197,0.0,-1.635909822514413,1.635909822514413,-512,-2052,1140,7,8,11,10,
743,462,-35,36,707,708.7806396484375,4.059662342071533,0.0,-2.8304499950370605,2.9113886983380612,-391,-2318,-320,13,9,10,8,
744,462,-12,60,756,758.47216796875,4.6247334480285645,0.0,-0.9065303749421323,4.53720335059847,-586,-1972,516,6,9,7,6,
745,464,-18,-2,793,793.206787109375,1.3056964874267578,0.0,-1.3003072958806159,-0.1444663396183061,-559,-1757,-474,8,7,7,7,
746,464,-11,-108,810,817.2423095703125,7.631041049957275,5.810488224029541,-0.7712187630191984,-7.593951323526957,-611,-1723,-654,11,9,10,8,
747,464,-4,-82,843,846.9882202148438,5.559848308563232,2.787480354309082,-0.270586971251781,-5.5557142900976615,-673,-2102,-92,18,9,12,8,
748,464,-32,53,751,753.547607421875,4.710195541381836,0.0,-2.433842838768315,4.033169952530005,-645,-2251,795,10,13,7,9,
749,464,-9,9,783,783.1034545898438,0.9286520481109619,0.0,-0.6584996830501032,0.6584996830501032,-539,-1963,288,16,8,14,13,
750,461,3,6,831,831.027099609375,0.4598618447780609,0.0,0.2068376795123031,0.4136780546132025,-416,-1257,576,8,5,11,13,
751,461,-13,-58,760,762.32080078125,4.469437599182129,0.0,-0.9771230711580454,-4.363477578909733,-557,-2079,-309,8,9,8,8,
752,461,-21,25,769,769.6928100585938,2.4285786151885986,0.0,-1.5634298564269924,1.8613224310356933,-509,-2070,-806,7,8,5,6,
753,461,-27,-18,776,776.6781616210938,2.391953945159912,0.0,-1.9921993922806238,-1.3279842261610681,-570,-1982,-790,5,7,7,9,
754,461,-19,-13,773,773.3427734375,1.7032934427261353,0.0,-1.4078225564894473,-0.963195457055242,-570,-2117,-93,4,6,6,7,
755,466,-15,0,771,771.1458740234375,1.111938714981079,0.0,-1.114563272484713,0.0,-491,-2018,944,7,9,8,10,
756,466,-6,16,759,759.1923217773438,1.2871109247207642,0.0,-0.45282103157955245,1.2075995856191246,-576,-1780,562,11,8,7,11,
757,466,-21,1,746,746.2962036132812,1.6116774082183838,0.0,-1.6124565956498127,0.07677353521472818,-556,-2129,-35,7,7,6,7,
758,466,-12,-41,768,769.187255859375,3.1812398433685303,0.0,-0.8939010133415183,-3.0554859430196455,-583,-2098,92,8,10,7,8,
759,466,-17,-1,768,768.1887817382812,1.267630696296692,0.0,-1.2680577988009298,-0.07458556707716255,-678,-2144,-61,6,8,6,6,
760,472,-15,30,754,754.7456665039062,2.544490337371826,0.0,-1.1387853343773628,2.27802084308204,-483,-1950,-336,6,11,6,8,
761,472,-3,6,785,785.0286865234375,0.4869648218154907,0.0,-0.2189573008711028,0.43791779948940396,-601,-1914,188,6,6,5,8,
762,472,-3,-59,807,809.159423828125,4.184323787689209,0.0,-0.21242751891671266,-4.181442422587596,-504,-1825,190,8,7,7,10,
763,472,-4,-111,825,832.4434204101562,7.6653571128845215,2.0585684776306152,-0.2753148170267822,-7.662779844977211,-484,-2635,957,14,9,9,7,
764,472,-36,0,732,732.8847045898438,2.812986135482788,0.0,-2.8155566842112285,0.0,-649,-2135,198,5,7,9,10,
765,470,-36,39,740,741.9009399414062,4.099893093109131,0.0,-2.7813125222873607,3.013294241092847,-467,-2052,-246,9,5,7,7,
766,470,-22,15,765,765.4632568359375,1.9908734560012817,0.0,-1.6469513544965872,1.1228386170324527,-510,-1738,-477,10,6,5,6,
767,470,-24,-43,775,776.5629272460938,3.633193016052246,0.0,-1.7710318564034797,-3.1742169568314704,-460,-1928,-2,8,6,6,7,
768,470,-27,-28,737,738.0257568359375,3.018580913543701,0.0,-2.0965817867840997,-2.1742695927102407,-579,-2222,471,10,5,9,12,
769,470,-12,3,765,765.0999755859375,0.9237068295478821,0.0,-0.8986767116578642,0.2246605417104138,-662,-2288,-44,6,7,6,7,
770,477,0,-23,771,771.3429565429688,1.7061008214950562,0.0,0.0,-1.7087058728650877,-535,-1948,453,9,6,8,6,
771,477,-9,18,744,744.2721557617188,1.546816110610962,0.0,-0.6928575777530688,1.3858164994518365,-600,-1852,583,12,8,11,8,
772,477,3,-20,771,771.2651977539062,1.499945878982544,0.0,0.2228646816196987,-1.4859273617289515,-608,-2074,56,12,12,15,12,
773,477,3,21,747,747.3011474609375,1.6240336894989014,0.0,0.23001142387978388,1.610287623407522,-524,-2019,186,11,7,10,10,
774,477,-22,2,769,769.3171997070312,1.6428513526916504,0.0,-1.6386985314966198,0.14895245247571007,-593,-2219,-309,7,9,11,9,
775,477,-30,-14,751,751.7293090820312,2.521519660949707,0.0,-2.287166247061841,-1.0671224969983646,-561,-2076,-421,8,7,7,7,
776,477,-4,-6,754,754.0344848632812,0.5453100204467773,0.0,-0.3039439156274428,-0.4559185464283853,-519,-2220,748,7,8,8,10,
777,477,-22,17,771,771.5011596679688,2.062640428543091,0.0,-1.634058573427482,1.2626126487488112,-427,-2145,488,5,8,8,10,
778,477,-27,5,767,767.4913940429688,2.0477499961853027,0.0,-2.0160556599982593,0.3732692457279454,-555,-1981,105,6,7,8,7,
779,485,-26,-13,729,729.579345703125,2.2808713912963867,0.0,-2.0422806690797883,-1.0209781477375646,-545,-2118,101,6,7,5,6,
780,485,-1,2,748,748.0033569335938,0.16862764954566956,0.0,-0.07659831627076516,0.15319676944478208,-515,-2092,29,6,7,5,5,
781,485,5,15,750,750.1666259765625,1.2051053047180176,0.0,0.3818898366604741,1.1457373844142817,-649,-1637,149,6,7,8,9,
782,485,-17,30,771,771.7706909179688,2.55818510055542,0.0,-1.2621715833100082,2.2277427354895667,-615,-1965,423,6,7,6,9,
783,485,3,-42,795,796.1143188476562,3.029256820678711,0.0,0.21590837201623997,-3.024113958504467,-635,-1749,762,8,8,10,10,
784,471,-3,-100,831,837.0006103515625,6.862410545349121,1.7131009101867676,-0.20536151002941577,-6.861759750793295,-535,-1830,-696,15,13,16,11,
785,471,-10,3,776,776.0702514648438,0.7681788802146912,0.0,-0.7383012905009879,0.2214848093067397,-515,-1815,831,9,10,15,16,
786,471,-24,13,762,762.4887084960938,2.0488498210906982,0.0,-1.8037328149665441,0.976907900853491,-581,-1738,703,11,11,10,9,
787,471,-28,-6,725,725.5653076171875,2.2592735290527344,0.0,-2.2116276679093017,-0.4738079353556721,-454,-1906,63,8,13,10,11,
788,471,-28,9,751,751.57568359375,2.240100622177124,0.0,-2.1350520150378514,0.6861243058409892,-541,-2035,-334,7,10,7,8,
789,479,-5,-12,739,739.1143188476562,1.005179762840271,0.0,-0.38760049579775646,-0.9302749672338029,-644,-2169,-109,5,11,11,8,
790,479,-30,12,782,782.667236328125,2.3634371757507324,0.0,-2.196712076254645,0.8785039981167173,-512,-2126,526,9,11,13,10,
791,479,-14,-51,815,816.7141723632812,3.7102673053741455,0.0,-0.9822043661601569,-3.5801842968772997,-592,-2081,-71,8,15,7,9,
792,479,18,-63,807,809.6554565429688,4.639193534851074,0.0,1.2738862733434566,-4.462745685180492,-625,-1965,-722,7,10,9,8,
793,479,-17,14,757,757.3202514648438,1.6637797355651855,0.0,-1.2862590671208542,1.0592435371501636,-520,-1961,-599,11,4,6,6,
794,478,-30,10,757,757.6602172851562,2.3894882202148438,0.0,-2.2692531760464356,0.7562419416674053,-508,-2023,37,8,11,7,9,
795,478,11,-42,764,765.232666015625,3.2499465942382812,0.0,0.8236387802298485,-3.1462752925821746,-596,-2102,837,9,8,10,11,
796,478,-17,36,800,800.989990234375,2.846407175064087,0.0,-1.2161217694556143,2.575991069050838,-484,-1760,1042,15,7,9,11,
797,478,-29,-1,771,771.5458374023438,2.1527674198150635,0.0,-2.1540768986265584,-0.07426103774628684,-489,-2124,-55,9,7,7,7,
798,478,-3,12,782,782.0978393554688,0.903570830821991,0.0,-0.2197778278730537,0.8791436523890208,-454,-2023,-853,12,13,12,14,
799,493,3,-29,759,759.5597534179688,2.197178602218628,0.0,0.2262992312350217,-2.1880853675918015,-612,-1997,-267,10,13,15,13,
800,493,4,0,765,765.0104370117188,0.2969365417957306,0.0,0.2995830450603447,0.0,-461,-2093,544,10,10,12,16,
801,493,2,-17,761,761.1925048828125,1.2859224081039429,0.0,0.15054233069200298,-1.2797147362574102,-670,-2215,256,8,10,12,13,
802,493,-18,36,765,766.05810546875,3.0091822147369385,0.0,-1.3463978328979365,2.6935398748355914,-519,-1906,69,6,12,11,10,
803,493,6,4,748,748.0347290039062,0.549701988697052,0.0,0.45957538667593895,0.30638176590159305,-727,-1896,124,8,15,9,9,
804,489,-2,-6,730,730.0274047851562,0.49374741315841675,0.0,-0.15696904374077483,-0.47091184392241714,-694,-1810,216,10,15,15,14,
805,489,-9,21,755,755.3456420898438,1.7307175397872925,0.0,-0.6826996895683053,1.593133527227983,-677,-1998,513,10,13,12,12,
806,489,-8,21,726,726.3477172851562,1.7703337669372559,0.0,-0.6310689711871245,1.6567534213149844,-670,-1953,544,9,11,12,13,
807,489,17,23,789,789.5181884765625,2.073425531387329,0.0,1.233794893254002,1.669359086209243,-760,-1967,-222,9,14,10,10,
808,489,-12,-30,810,810.6441650390625,2.281738758087158,0.0,-0.8481828119222808,-2.1208638797322044,-429,-1778,-183,7,13,12,10,
809,496,-31,-24,782,782.9821166992188,2.867478847503662,0.0,-2.2690601543532676,-1.7565077068754746,-593,-1788,915,12,17,11,10,
810,496,5,36,761,761.867431640625,2.731806993484497,0.0,0.3760246705406584,2.708366696295788,-508,-1830,1366,8,7,8,8,
811,496,-11,19,750,750.3212890625,1.6741141080856323,0.0,-0.8400083844593245,1.4510266976480106,-524,-2224,499,7,10,10,7,
812,496,-39,-12,803,804.0360717773438,2.906412124633789,0.0,-2.7802391442423873,-0.8551542751135336,-436,-1999,-654,11,11,10,8,
813,496,-52,-25,789,791.1068115234375,4.179911136627197,0.0,-3.768808531327553,-1.810922327724109,-740,-1675,-1114,8,11,7,9,
814,501,-58,41,762,765.30322265625,5.322813034057617,125.25474548339844,-4.346440219140686,3.071007809564012,-517,-1783,-311,8,8,10,7,
815,501,-48,-45,726,728.9752807617188,5.175891399383545,46.84367752075195,-3.775420923824178,-3.539146485232136,-194,-1902,254,12,8,8,10,
816,501,-21,-62,748,750.8588256835938,4.9988884925842285,0.0,-1.6026558102780466,-4.736426209659228,-646,-2091,388,9,17,10,8,
817,501,-3,-21,753,753.2987670898438,1.6110763549804688,0.0,-0.22818011303700372,-1.5974635257844576,-759,-2062,1489,9,13,8,7,
818,501,13,-81,823,827.07861328125,5.68994665145874,350.8871765136719,0.9006106704041444,-5.620274986105903,-690,-1784,413,11,15,9,7,
819,499,-17,25,738,738.6189575195312,2.3432464599609375,0.0,-1.3188318906938168,1.9396578753950058,-495,-2005,-418,10,9,8,11,
820,499,-27,-3,756,756.4879150390625,2.0553932189941406,0.0,-2.0453923981921465,-0.22721814915588698,-465,-2116,-891,7,11,8,11,
821,499,-16,2,741,741.1754150390625,1.2439701557159424,0.0,-1.2369591146906391,0.15460806623502577,-556,-1993,-1023,7,10,8,8,
822,499,-3,-20,732,732.279296875,1.5799639225006104,0.0,-0.23472985658327059,-1.5650559484063908,-434,-2228,466,7,11,10,10,
823,506,-12,-6,745,745.1207885742188,1.0290793180465698,0.0,-0.922775317229872,-0.46137269868013464,-698,-2079,1605,9,14,12,10,
824,506,20,12,778,778.3495483398438,1.7145636081695557,0.0,1.4723998332736343,0.8833776636150086,-730,-1855,1247,8,7,8,7,
825,506,-17,-34,810,810.8914794921875,2.684335708618164,0.0,-1.20127000217833,-2.4030684628874845,-754,-1737,129,8,8,6,6,
826,506,-7,2,762,762.0347900390625,0.5447431206703186,0.0,-0.5263225640851217,0.15037593319293965,-549,-2084,-948,7,7,10,12,
827,506,0,5,725,725.0172119140625,0.39249369502067566,0.0,0.0,0.3951370425074883,-546,-1913,-593,11,11,12,12,
828,498,9,19,784,784.2818603515625,1.5334694385528564,0.0,0.6575102335710843,1.388182503082072,-824,-1733,-25,8,10,11,11,
829,498,-8,-39,801,801.98876953125,2.842855453491211,0.0,-0.5715464488134625,-2.7873420454097535,-676,-1972,361,15,13,14,16,
830,498,-21,-33,779,779.9813842773438,2.871952772140503,0.0,-1.5428018758343531,-2.4248337712299626,-696,-1815,494,13,16,18,16,
831,498,-22,10,743,743.3928833007812,1.8602900505065918,0.0,-1.6958612594969933,0.7707567265274228,-613,-1501,715,10,16,14,14,
832,498,-18,29,759,759.76708984375,2.5722694396972656,0.0,-1.3575483524519072,2.187487982663206,-378,-1801,1194,9,15,16,18,
833,505,-14,0,796,796.1231079101562,1.0049816370010376,0.0,-1.007610826982291,0.0,-563,-2089,-231,11,12,15,13,
834,505,-24,-23,804,804.6868896484375,2.364974021911621,0.0,-1.7091152676391062,-1.6378823048108722,-726,-1888,-94,11,11,11,14,
835,505,-18,-38,783,784.128173828125,3.0713045597076416,0.0,-1.3153648314254018,-2.7777253725623052,-781,-1397,-1085,13,18,19,18,
836,505,-44,-16,823,824.3306274414062,3.253368616104126,0.0,-3.0597102792325184,-1.11216300987261,-569,-1856,-1329,15,14,18,13,
837,505,-21,-50,768,769.912353515625,4.036602973937988,0.0,-1.5629839412667004,-3.723549298161735,-503,-2093,691,10,17,15,11,
838,519,-13,-33,717,717.876708984375,2.829406261444092,0.0,-1.037623617295072,-2.634752158334376,-691,-2230,992,9,10,12,15,
839,519,-21,18,729,729.5244750976562,2.170198440551758,0.0,-1.6495369191356521,1.4138369566492175,-546,-1972,981,8,7,7,9,
840,519,-14,19,764,764.3644409179688,1.7667683362960815,0.0,-1.0494807518419165,1.424362370751475,-637,-2216,582,9,10,8,7,
841,519,-39,12,770,771.0803833007812,3.0308549404144287,0.0,-2.899164846164139,0.8917061059763517,-313,-1932,-861,9,17,8,9,
842,519,-18,-36,774,775.0457763671875,2.974224328994751,0.0,-1.3307816887447748,-2.6622819746312953,-394,-2064,-558,7,9,10,7,
843,521,-6,-21,778,778.3065185546875,1.6054003238677979,0.0,-0.44170013288572124,-1.5461227898540357,-471,-2161,-18,8,10,11,12,
844,521,-8,15,729,729.1981811523438,1.3332570791244507,0.0,-0.6286019877515143,1.1786882189569692,-777,-2322,1273,14,11,13,19,
845,521,-3,4,788,788.015869140625,0.36090314388275146,0.0,-0.21812727619735295,0.29083691469045325,-643,-2118,757,7,9,11,8,
846,521,0,-27,809,809.450439453125,1.908908724784851,0.0,0.0,-1.9115105751324724,-670,-1984,259,9,10,12,11,
847,521,-35,-60,837,839.8773803710938,4.741560459136963,0.0,-2.3883643323847576,-4.09664283046585,-818,-1930,-490,8,7,10,12,
848,520,-31,-1,767,767.6268920898438,2.3130903244018555,0.0,-2.3144738596816277,-0.07464016505864829,-560,-1831,-736,7,11,11,8,
849,520,-34,12,753,753.8627319335938,2.7387943267822266,0.0,-2.5849766584535985,0.9120737439040076,-500,-1987,-527,10,8,10,8,
850,520,-36,-76,790,794.4633178710938,6.073753356933594,25.34160804748535,-2.5971677858380433,-5.489426625245922,-553,-2237,-347,8,8,10,12,
851,520,-21,-34,742,743.0753784179688,3.08027982711792,0.0,-1.6194475627082767,-2.6225292512158274,-561,-2185,614,9,5,9,7,
852,520,-10,24,740,740.4566040039062,2.0096707344055176,0.0,-0.7738133487151344,1.857420900368313,-604,-1991,934,7,9,9,9,
853,518,-22,18,771,771.5238037109375,2.1088411808013916,0.0,-1.6340105192505263,1.3368577762691458,-477,-2064,271,8,6,6,5,
854,518,-18,-12,796,796.2939453125,1.5541656017303467,0.0,-1.295265304796,-0.8634693384130717,-611,-1679,436,6,7,8,9,
855,518,9,-87,828,832.6067504882812,6.0274977684021,354.0989990234375,0.6193464780018476,-5.997847789309802,-558,-1820,-758,6,9,10,9,
856,518,-15,18,750,750.3659057617188,1.7867950201034546,0.0,-1.1454330888487065,1.3745600015472466,-539,-2041,-34,7,8,9,13,
857,518,-11,-15,736,736.2350463867188,1.4451252222061157,0.0,-0.8560812935721253,-1.167420921888171,-729,-1959,-355,9,6,8,9,
858,520,-15,15,736,736.3056640625,1.6483293771743774,0.0,-1.1673089277004693,1.1673089277004693,-575,-1951,-593,8,6,9,8,
859,520,-33,-18,755,755.9351806640625,2.8477118015289307,0.0,-2.502015816317897,-1.3644311557762698,-586,-2203,210,8,6,6,6,
860,520,-30,-40,804,805.55322265625,3.556036949157715,0.0,-2.134273569620188,-2.8462104824028316,-927,-1525,321,8,7,8,9,
861,520,-90,7,778,783.2196655273438,6.616011142730713,94.44486236572266,-6.598451063511922,0.5120859810426798,-123,-2011,-536,8,11,14,12,
862,520,-36,-7,771,771.8717651367188,2.720768928527832,0.0,-2.6732376176867865,-0.5196147597044323,-502,-2030,670,9,9,12,14,
863,529,0,4,765,765.0104370117188,0.2969365417957306,0.0,0.0,0.2995830450603447,-628,-2192,644,8,10,12,11,
864,529,-31,-6,730,730.6825561523438,2.474137306213379,0.0,-2.4315654193562843,-0.4704895949627546,-647,-2266,-1248,9,8,11,11,
865,529,-18,33,779,779.9064331054688,2.7600369453430176,0.0,-1.3224863992136746,2.425067112423419,-699,-1885,619,9,9,10,9,
866,529,-37,-51,821,823.4142456054688,4.386059284210205,0.0,-2.5754447951154416,-3.5510149842780834,-483,-1883,885,10,8,12,13,
867,529,-11,-64,828,830.5426025390625,4.48189640045166,0.0,-0.7588677650313376,-4.419482699917389,-560,-1806,-16,8,13,16,14,
868,536,-2,0,764,764.0026245117188,0.14733731746673584,0.0,-0.14998860898745794,0.0,-624,-1589,206,8,10,12,9,
869,536,-71,13,778,781.3411254882812,5.298046112060547,100.37349700927734,-5.213624855711751,0.9533345309921395,-319,-1756,459,8,9,11,10,
870,536,-65,-10,710,713.0392456054688,5.289501190185547,81.25092315673828,-5.230291303590558,-0.8035694572960754,-96,-1768,-846,9,10,11,12,
871,536,-18,-34,752,752.9833984375,2.926008462905884,0.0,-1.3697809025072132,-2.5879973996765844,-495,-1843,-176,8,8,10,9,
872,536,-3,-54,797,798.8328857421875,3.8795175552368164,0.0,-0.2151735899543362,-3.876071344551897,-629,-1673,351,8,7,6,7,
873,528,2,-8,765,765.04443359375,0.6149526834487915,0.0,0.14978435641924792,-0.5991476627389257,-560,-1693,104,10,7,9,9,
874,528,-24,12,730,730.4929809570312,2.1024956703186035,0.0,-1.8827644386146722,0.9412551466777287,-572,-1782,628,8,8,8,10,
875,528,-2,-6,736,736.0271606445312,0.4896969795227051,0.0,-0.15568949650761685,-0.46707308790961105,-605,-1744,-317,5,6,11,11,
876,528,3,-33,755,755.726806640625,2.5104544162750244,0.0,0.2274469946309226,-2.502706147326175,-707,-2296,-88,9,12,10,9,
877,540,-13,26,775,775.5449829101562,2.145465612411499,0.0,-0.960460125566709,1.9211902776420047,-622,-2034,411,7,9,9,8,
878,540,-62,-12,763,765.60888671875,4.728856086730957,0.0,-4.6449727579786,-0.8980792955330715,-485,-1960,112,8,10,10,13,
879,540,-11,-38,724,725.0800170898438,3.125025749206543,0.0,-0.8692527122561343,-3.004134076500401,-616,-1787,242,12,12,13,11,
880,540,-27,21,744,744.785888671875,2.6297335624694824,0.0,-2.0775435501521793,1.6157272787518926,-817,-1679,-960,19,11,12,13,
881,540,-18,-10,712,712.2976684570312,1.6539438962936401,0.0,-1.4480375858683574,-0.8044061150616236,-610,-2415,486,12,13,11,14,
882,528,-16,26,748,748.6227416992188,2.3345718383789062,0.0,-1.2246519309628456,1.9903081189326108,-728,-1934,449,13,11,15,16,
883,528,4,-15,797,797.1511840820312,1.1132570505142212,0.0,0.2875039092475203,-1.0781987696810134,-864,-1905,-502,10,11,9,10,
884,528,-4,-24,798,798.370849609375,1.7438045740127563,0.0,-0.2870646885896767,-1.7226404437224963,-665,-1856,782,7,6,9,8,
885,528,-32,-37,791,792.5111694335938,3.5363175868988037,0.0,-2.314116849293012,-2.675942920368816,-412,-2043,-436,8,7,10,7,
886,528,-8,38,768,768.9811401367188,2.892054796218872,0.0,-0.5960802916921378,2.832483903871853,-639,-1896,9,7,5,7,6,
887,538,-33,-45,789,790.970947265625,4.043057441711426,0.0,-2.391124149075096,-3.261438454011595,-563,-1832,230,8,5,5,6,
888,538,14,-79,860,863.7343139648438,5.327300548553467,349.9556579589844,0.9287300607363073,-5.247795755061958,-697,-1794,182,12,6,10,11,
889,538,-23,-39,771,772.3283081054688,3.358276605606079,0.0,-1.7065253116388572,-2.8944765367019545,-736,-2242,362,9,9,9,10,
890,538,-50,41,763,765.7349243164062,4.841461658477783,0.0,-3.743891636345801,3.069274669262603,-391,-1670,-49,10,7,12,8,
891,538,-30,-6,741,741.6312866210938,2.3616747856140137,0.0,-2.3183251257568958,-0.4635435730640779,-598,-1974,260,7,6,7,8,
892,552,-25,-66,718,721.4603271484375,5.6113972663879395,20.74138069152832,-1.9858074706951825,-5.248820683496773,-560,-1632,-917,24,7,10,11,
893,552,-57,21,756,758.4365234375,4.591387748718262,0.0,-4.310105641774778,1.5866392048303228,-460,-2017,114,12,9,9,8,
894,552,-30,0,727,727.6187133789062,2.3604111671447754,0.0,-2.3629968719526486,0.0,-430,-2309,532,9,10,13,12,
895,552,-11,-19,764,764.3153686523438,1.6434046030044556,0.0,-0.824627307631077,-1.4244538204148325,-434,-2194,-749,10,14,13,10,
896,552,-16,-21,815,815.427490234375,1.8527629375457764,0.0,-1.1243075718849036,-1.475722144058434,-845,-1551,601,9,13,14,10,
897,567,-44,-24,786,787.5963134765625,3.6460206508636475,0.0,-3.2025637567648975,-1.746213808323479,-548,-1916,-336,12,10,13,14,
898,567,-8,42,730,731.2509765625,3.3493492603302,0.0,-0.6268372839523286,3.292642122178037,-560,-1960,-235,13,11,13,14,
899,567,-12,24,763,763.4716796875,2.011521816253662,0.0,-0.9005935495176972,1.8014097010377736,-681,-1943,1025,9,11,10,11,
900,567,0,-89,814,818.8510131835938,6.2372660636901855,360.00531005859375,0.0,-6.239740718192734,-770,-2262,328,9,13,14,10,
901,567,-12,-48,822,823.4877319335938,3.4419968128204346,0.0,-0.8349531944989332,-3.341588607913773,-767,-2073,-396,7,7,5,8,
902,550,-15,-35,820,820.8836669921875,2.6561944484710693,0.0,-1.0470235418898788,-2.4436597360813845,-550,-2026,-556,12,9,9,11,
903,550,-22,41,720,721.5018920898438,3.6950149536132812,0.0,-1.747330878811016,3.257639481990315,-688,-1774,-803,10,9,10,7,
904,550,-39,-2,719,720.0596923828125,3.1063034534454346,0.0,-3.1047832580625108,-0.15914194784901886,-582,-1852,378,9,8,10,7,
905,550,-18,-41,801,802.2506103515625,3.197038412094116,0.0,-1.2856464070657416,-2.9294472362217205,-418,-1763,858,7,9,10,15,
906,550,24,-45,767,768.6937255859375,3.801616907119751,0.0,1.789168064450168,-3.3560636997027364,-566,-2212,-453,11,10,9,10,
907,560,-9,24,783,783.41943359375,1.8723456859588623,0.0,-0.6582340703704678,1.755526909800107,-587,-1810,369,6,11,8,6,
908,560,-15,-15,748,748.3007202148438,1.6218615770339966,0.0,-1.1485946913102254,-1.1485946913102254,-607,-1959,17,7,6,5,8,
909,560,-16,-1,747,747.1719970703125,1.2268054485321045,0.0,-1.2270301187900574,-0.07668354340686966,-652,-2367,-821,6,10,7,7,
910,560,-9,36,753,753.913818359375,2.8186893463134766,0.0,-0.6839963298454246,2.736961115203578,-668,-2127,362,10,7,7,7,
911,560,-18,-25,785,785.604248046875,2.244724988937378,0.0,-1.3128929996139658,-1.8236108083147788,-700,-1932,777,7,5,8,10,
912,567,-4,-44,823,824.18505859375,3.0703210830688477,0.0,-0.2780734947864843,-3.060251266383303,-1147,-2008,-283,8,9,8,8,
913,567,-9,1,783,783.0523681640625,0.6599581241607666,0.0,-0.6585426405417553,0.07316981334008492,-631,-1865,-76,10,7,13,9,
914,567,3,24,670,670.4364013671875,2.0648670196533203,0.0,0.25638212027684587,2.0514884289820214,-591,-2535,1439,8,7,9,9,
915,567,-35,45,750,752.16357421875,4.344264030456543,0.0,-2.667075115320256,3.4299065324301656,-418,-2179,-289,16,10,8,8,
916,567,-16,-74,825,828.4666748046875,5.240828037261963,12.195524215698242,-1.1066099799232518,-5.124582721664587,-538,-1930,280,7,14,7,10,
917,566,8,-21,774,774.326171875,1.6604464054107666,0.0,0.5919655248526311,-1.5540724041618834,-794,-2008,-1775,8,9,9,7,
918,566,-50,22,777,778.9178466796875,4.0189528465271,0.0,-3.6804395965459693,1.6184952242242399,-427,-2026,-946,7,9,8,6,
919,566,-21,16,744,744.46826171875,2.029683828353882,0.0,-1.6164167710303758,1.2314870909250228,-620,-1985,2069,8,7,8,10,
920,566,-14,-54,740,742.0997314453125,4.308588981628418,0.0,-1.0809712978431705,-4.172901474831726,-600,-2034,-269,7,9,9,9,
921,577,-6,-22,768,768.3384399414062,1.6981228590011597,0.0,-0.4474306388119201,-1.640786589471449,-575,-2265,960,7,7,10,10,
922,577,-30,-78,812,816.2891845703125,5.873656749725342,21.032819747924805,-2.10619059852934,-5.483228253927795,-529,-1954,-386,9,7,8,10,
923,577,18,48,756,757.736083984375,3.8767237663269043,0.0,1.3611876868480284,3.6319241846269534,-892,-2080,-622,10,7,9,10,
924,577,-5,-19,745,745.259033203125,1.5080262422561646,0.0,-0.3844046711936037,-1.460885076196804,-483,-2190,-821,8,7,9,7,
925,577,-34,-63,724,727.53076171875,5.644558906555176,28.35049057006836,-2.6786033215980765,-4.967708313309901,-121,-1972,-244,7,9,10,9,
926,560,-8,12,717,717.14501953125,1.149710774421692,0.0,-0.6391674228486793,0.9587759942473691,-494,-2034,416,6,6,13,11,
927,560,-43,1,770,771.2003784179688,3.1946136951446533,0.0,-3.196311865822098,0.07429430575079268,-392,-2339,1060,8,9,13,11,
928,560,-9,-31,752,752.6925048828125,2.4553604125976562,0.0,-0.6851062069996865,-2.3604216646216183,-409,-1749,917,7,8,7,7,
929,560,-10,-12,805,805.1515502929688,1.1090221405029297,0.0,-0.711633151260151,-0.8539694430439811,-588,-1233,-345,7,6,6,6,
930,560,-26,7,756,756.4793701171875,2.0371971130371094,0.0,-1.9696290750725791,0.5301878800581454,-561,-2251,-368,7,13,8,8,
931,564,-20,35,773,774.0504150390625,2.9826529026031494,0.0,-1.4805794985813534,2.5916093953987,-626,-1957,-449,7,4,7,9,
932,564,-13,51,780,781.7736206054688,3.8576602935791016,0.0,-0.9528071066327691,3.740419558472876,-665,-1756,-261,7,7,10,9,
933,564,2,-18,795,795.2062377929688,1.3024041652679443,0.0,0.1441030902707253,-1.2970372221498323,-599,-1940,642,9,9,12,11,
934,564,-27,-43,795,796.6197509765625,3.65177845954895,0.0,-1.9423098851904566,-3.0942197154905533,-639,-1822,1016,6,9,12,12,
935,564,-24,3,762,762.3837890625,1.815421223640442,0.0,-1.803981144610962,0.225460969644296,-511,-1895,780,5,6,7,7,
936,586,-32,-44,744,745.986572265625,4.179842948913574,0.0,-2.4585263478926094,-3.381398994420695,-552,-1993,-347,7,7,7,8,
937,586,2,12,754,754.09814453125,0.9217396974563599,0.0,0.15195859499854172,0.9117889851789442,-483,-1959,-750,5,5,6,8,
938,586,-6,8,746,746.0670166015625,0.7653579115867615,0.0,-0.4607875340264205,0.614388530051008,-611,-2111,-358,5,7,7,6,
939,586,-24,30,762,762.9678955078125,2.883742094039917,0.0,-1.8025995620604454,2.2534586781091934,-569,-1851,-493,5,6,6,5,
940,586,-13,18,769,769.3204956054688,1.6512527465820312,0.0,-0.9682318432795752,1.3406872412013247,-732,-1487,479,14,8,8,12,
941,577,-12,-24,779,779.4619750976562,1.9701910018920898,0.0,-0.8821167960907651,-1.7644427688367041,-588,-1653,1000,8,6,8,7,
942,577,-26,-33,775,776.1378784179688,3.1003406047821045,0.0,-1.919722098694282,-2.4368490911888254,-504,-1892,-62,8,6,6,4,
943,577,-33,30,744,745.3355102539062,3.4278714656829834,0.0,-2.537621014804899,2.3067972169879587,-444,-1928,614,10,6,6,9,
944,577,-28,-17,771,771.695556640625,2.430217742919922,0.0,-2.079361573803384,-1.2622945262340404,-421,-1941,-128,6,8,6,7,
945,577,-15,-6,754,754.1730346679688,1.224831461906433,0.0,-1.1396500553838964,-0.45583477217059104,-574,-2161,-482,8,9,7,6,
946,581,0,12,753,753.0955810546875,0.9103739261627197,0.0,0.0,0.913002866815424,-589,-1996,-1076,7,6,7,6,
947,581,-6,26,756,756.4707641601562,2.01884388923645,0.0,-0.45445019562998806,1.9696514562112653,-524,-1906,-536,6,11,8,10,
948,581,-36,4,795,795.82470703125,2.606107234954834,0.0,-2.592721867225223,0.28798311306361024,-464,-1868,1879,6,8,11,8,
949,581,-21,-73,797,800.6116333007812,5.441812038421631,16.04416275024414,-1.5030375788473447,-5.2315118211437515,-569,-2062,910,8,7,5,7,
950,581,-14,-35,773,773.9185791015625,2.7893052101135254,0.0,-1.036523308677288,-2.59205100506524,-528,-1935,-284,8,5,6,5,
951,568,-15,25,724,724.5867919921875,2.3034117221832275,0.0,-1.1861906882505855,1.97723567871715,-516,-1973,-450,4,8,7,5,
952,568,-10,6,714,714.09521484375,0.9331123232841492,0.0,-0.8023811081776773,0.48141859358805433,-506,-1977,-757,6,9,8,7,
953,568,-21,6,736,736.323974609375,1.697111964225769,0.0,-1.6343003625537016,0.4668848116538573,-518,-1977,-643,9,8,9,8,
954,568,-14,-11,754,754.210205078125,1.3500803709030151,0.0,-1.0636119790858165,-0.8356767586271739,-552,-2090,-434,8,8,8,6,
955,568,-12,54,761,763.0078735351562,4.155000686645508,0.0,-0.90114104165861,4.05836021236099,-680,-1917,722,7,9,6,8,
956,584,-13,-50,798,799.6705322265625,3.701599359512329,0.0,-0.9314810190976051,-3.5847998598499933,-499,-1975,901,8,10,5,5,
957,584,1,-60,801,803.2446899414062,4.281882286071777,0.0,0.0713304382192684,-4.283815200321796,-450,-2071,683,7,7,9,9,
958,584,-3,6,742,742.0303344726562,0.5153383016586304,0.0,-0.2316452596602289,0.46329430581565545,-502,-1901,483,10,6,7,8,
959,584,-18,19,746,746.458984375,2.0067336559295654,0.0,-1.3817557854702036,1.4585361449066296,-543,-2075,-162,6,6,7,7,
960,584,-15,9,780,780.1961059570312,1.2821247577667236,0.0,-1.1016328021757908,0.6609536159730987,-556,-1981,-714,6,9,7,6,
961,588,-14,-61,804,806.4322509765625,4.44858455657959,0.0,-0.9947285647312372,-4.338100333066118,-548,-1965,-215,7,9,7,6,
962,588,-19,-63,795,797.7186279296875,4.7291154861450195,0.0,-1.3647954738898052,-4.52966352499656,-597,-1984,938,7,6,5,6,
963,588,-14,14,756,756.2592163085938,1.4975757598876953,0.0,-1.0607298664392666,1.0607298664392666,-534,-2042,544,9,6,7,7,
