step,tof,accX,accY,accZ,acc,incl,orient,roll,pitch,gyroX,gyroY,gyroZ,mic0,mic1,mic2,mic3,
0,31,-224,-84,735,772.9534301757812,18.027210235595703,69.4406967163086,-16.845835302539914,-6.238887548973626,-42,-89,149,6,7,7,6,
1,29,-227,-81,733,771.6080322265625,18.199329376220703,70.35893249511719,-17.109021109386987,-6.0257593417816215,-91,-107,129,12,10,10,9,
2,29,-226,-80,729,767.4093017578125,18.20203399658203,70.50370788574219,-17.12739883109064,-5.983776119922467,-50,-132,100,10,11,10,11,
3,29,-228,-83,736,774.9638671875,18.24375343322754,69.99347686767578,-17.110007552890217,-6.148271921859991,-38,-117,116,9,9,9,8,
4,29,-225,-84,738,776.0960083007812,18.024415969848633,69.52445983886719,-16.85272289237254,-6.213525301714797,-82,-147,120,10,7,7,7,
5,29,-227,-84,729,768.1314697265625,18.365142822265625,69.69005584716797,-17.188860389751483,-6.278209025425471,-16,-133,108,7,4,4,5,
6,29,-227,-80,732,770.5537109375,18.198945999145508,70.58314514160156,-17.13315485854255,-5.9592693485841775,-10,-134,115,6,5,5,5,
7,29,-222,-81,739,775.8646850585938,17.730968475341797,69.95150756835938,-16.626547719204265,-5.99257887146604,-97,-135,133,9,5,4,4,
8,29,-227,-82,732,770.763916015625,18.246410369873047,70.13534545898438,-17.12833776592942,-6.1071387885268384,-2,-117,132,4,2,3,2,
9,29,-224,-82,732,769.8856811523438,18.047142028808594,69.89051818847656,-16.914976122136018,-6.114131689642922,-30,-93,106,4,4,3,3,
10,29,-225,-83,734,772.1851806640625,18.09170913696289,69.748291015625,-16.940644901683257,-6.170481862384788,-39,-142,127,8,3,2,3,
11,32,-223,-81,734,771.3922729492188,17.910568237304688,70.0342788696289,-16.803345007686552,-6.027451421187734,-43,-117,135,8,4,4,4,
12,32,-223,-78,732,769.179443359375,17.884986877441406,70.71818542480469,-16.85312759211511,-5.8201841644210495,14,-87,118,6,3,3,3,
13,32,-225,-82,744,781.59130859375,17.840044021606445,69.97277069091797,-16.73073191666394,-6.022221168470943,-89,-91,128,5,3,3,3,
14,32,-223,-78,736,772.987060546875,17.79391860961914,70.71818542480469,-16.76765058466151,-5.791416434528577,-25,-106,143,4,3,3,3,
15,32,-225,-80,736,773.7706298828125,17.97380256652832,70.42364501953125,-16.90488940680799,-5.934404602578442,-56,-143,132,4,2,2,2,
16,27,-227,-78,738,776.0521850585938,18.01447105407715,71.03343200683594,-17.008052357061523,-5.768464677156045,-49,-119,143,5,4,4,4,
17,27,-230,-82,736,775.4482421875,18.352008819580078,70.37451171875,-17.253663564653053,-6.070107529449459,-70,-138,136,6,4,4,4,
18,27,-218,-111,729,768.9512329101562,18.548233032226562,63.01252365112305,-16.46938788481729,-8.2997832202878,-66,14,57,31,15,8,7,
19,27,-245,-53,746,786.9879150390625,18.571012496948242,77.79047393798828,-18.13840849681347,-3.8615286515707954,-82,7302,-2195,24,13,8,11,
20,27,-237,-99,714,758.79248046875,19.783037185668945,67.32533264160156,-18.20020811690821,-7.496779120349546,99,5439,1721,14,10,8,10,
21,29,-225,-87,806,841.3263549804688,16.66018295288086,68.85690307617188,-15.511683605723517,-5.935461031260161,244,-463,41,42,28,11,20,
22,29,-192,-125,753,787.0819702148438,16.920543670654297,56.930564880371094,-14.119141773912526,-9.138090295632484,-20,-845,231,30,17,20,13,
23,29,-241,-37,766,803.869384765625,17.654537200927734,81.26879119873047,-17.445587785303424,-2.6381065137083364,45,-1251,524,22,20,14,16,
24,29,-207,-96,763,796.3881225585938,16.647300720214844,65.11624145507812,-15.065524344252673,-6.923513404093937,-127,1475,120,8,8,8,4,
25,29,-234,-87,706,748.8397827148438,19.472105026245117,69.60186767578125,-18.208955841820455,-6.671674568311056,120,-660,374,15,12,9,11,
26,23,-267,-81,750,800.21875,20.404233932495117,73.1205825805664,-19.49099953267533,-5.809561769381648,109,271,652,11,11,9,7,
27,23,-274,-71,637,697.0552368164062,23.955913543701172,75.46971893310547,-23.146418892874287,-5.846118563909254,371,-1144,-1525,23,18,13,12,
28,23,-226,-146,756,802.4512329101562,19.588376998901367,57.13319778442383,-16.357933193007252,-10.482926471478136,59,-1356,258,12,12,8,11,
29,23,-240,-116,783,827.1305541992188,18.798450469970703,64.2005615234375,-16.86752004898898,-8.061958624775553,-70,76,403,11,5,8,7,
30,23,-214,-89,727,763.0504760742188,17.680267333984375,67.41484832763672,-16.287259457042573,-6.6980600573430085,-62,493,146,9,6,6,7,
31,34,-199,-124,761,796.302734375,17.1224365234375,58.068729400634766,-14.471888582153309,-8.95853751804615,-241,-748,172,10,12,11,10,
32,34,-243,-126,751,799.3284912109375,20.023712158203125,62.58897018432617,-17.698323557667624,-9.069494169068465,53,-295,1072,10,13,8,10,
33,34,-243,-72,768,808.7379150390625,18.26092529296875,73.49249267578125,-17.485724771104152,-5.107668482338761,178,-742,-632,14,12,13,10,
34,34,-228,-92,596,644.7200927734375,22.415115356445312,68.02218627929688,-20.710228792400468,-8.203974038017567,312,-1031,-710,17,15,9,10,
35,34,-255,-153,686,747.68310546875,23.434598922729492,59.03267288208008,-19.941077354530126,-11.807966484168,-300,-1858,-39,17,16,8,13,
36,26,-220,-57,630,669.738037109375,19.834169387817383,75.47150421142578,-19.17694749767317,-4.882229958415265,132,1009,911,14,13,9,11,
37,26,-223,-174,727,780.0858764648438,21.257335662841797,52.032413482666016,-16.610617923993136,-12.888376357696965,129,-931,-566,18,14,14,13,
38,26,-255,-151,705,764.7554931640625,22.798006057739258,59.364261627197266,-19.477696730421084,-11.387806793015082,87,-400,1125,11,10,10,14,
39,26,-216,-66,723,757.4569091796875,17.346172332763672,73.00601959228516,-16.568695477586978,-4.998730333243747,6,507,932,7,5,9,7,
40,25,-227,-89,767,804.8223266601562,17.632946014404297,68.5880355834961,-16.38258281348976,-6.348947762092761,-115,-63,299,8,9,6,5,
41,25,-245,-149,861,907.4949340820312,18.41790771484375,58.68999481201172,-15.662717798448558,-9.45008151049845,-101,-658,-459,19,17,14,12,
42,25,-245,-108,719,767.2352905273438,20.422744750976562,66.20797729492188,-18.622312688195237,-8.092125222913586,147,-844,-453,19,20,13,13,
43,25,-266,-65,630,686.9359741210938,23.489992141723633,76.26519012451172,-22.78205158673992,-5.429626548374598,359,-1706,938,16,12,11,13,
44,25,-216,-172,678,732.0682983398438,22.156639099121094,51.46602249145508,-17.160801603558607,-13.588719931526004,-72,-2256,858,18,12,8,8,
45,28,-192,-157,816,852.8593139648438,16.904163360595703,50.723026275634766,-13.010232041299947,-10.607885879278776,-344,600,-311,9,10,7,8,
46,28,-237,-136,717,767.3030395507812,20.859821319580078,60.147544860839844,-17.99138810453078,-10.209281799886034,241,523,1459,11,19,9,14,
47,28,-186,-98,756,784.6884765625,15.538652420043945,62.21260452270508,-13.711712277198899,-7.1744223494652415,-210,1085,-294,12,15,8,11,
48,28,-210,-48,720,751.534423828125,16.6544246673584,77.12196350097656,-16.226087770565204,-3.661935575519803,-43,-736,-415,7,10,10,8,
49,28,-282,-95,524,602.5985107421875,29.589818954467773,71.37918853759766,-27.902816354656803,-9.070552806849708,466,-1090,-754,18,14,9,9,
50,30,-217,-99,741,778.44140625,17.84041976928711,65.47314453125,-16.186340155932648,-7.306504032715905,-59,1827,-370,20,12,8,8,
51,30,-210,-138,817,854.770751953125,17.094179153442383,56.685726165771484,-14.222018129812065,-9.29088370987103,-112,867,1434,9,9,8,9,
52,30,-152,-104,812,832.624755859375,12.777050971984863,55.615989685058594,-10.518629847455891,-7.175339297821602,-474,-385,299,9,11,9,11,
53,30,-208,-86,712,746.7288818359375,17.540674209594727,67.5334701538086,-16.173577313382737,-6.613371503126334,-152,-690,430,8,15,9,13,
54,30,-234,-108,756,798.7214965820312,18.82216453552246,65.22148895263672,-17.03574212804197,-7.771115847572242,36,878,-329,11,21,15,14,
55,39,-224,-69,736,772.4202270507812,17.662452697753906,72.87614440917969,-16.857811509315884,-5.125041435835262,-68,188,-238,7,10,7,7,
56,39,-256,-93,655,709.3729858398438,22.577062606811523,70.03162384033203,-21.154378302423638,-7.533259864527259,28,-987,1101,9,11,6,8,
57,39,-195,-50,796,821.0609130859375,14.190272331237793,75.61553192138672,-13.738894118053315,-3.4912910623224573,-103,-333,-1284,14,14,12,10,
58,39,-224,-164,835,879.9414672851562,18.388673782348633,53.78681182861328,-14.747655920216701,-10.741368601881932,-238,366,1808,10,12,12,8,
59,39,-233,-176,759,813.2318115234375,21.0406494140625,52.93013000488281,-16.64919956559703,-12.498875520821292,195,432,105,14,16,11,10,
60,36,-234,-74,733,772.9948120117188,18.509401321411133,72.44783020019531,-17.62096883835564,-5.493426988643451,17,622,1443,6,8,7,12,
61,36,-266,-84,602,663.4877319335938,24.859615325927734,72.47126007080078,-23.63518529945613,-7.273376472605178,287,-1082,139,8,16,13,9,
62,36,-194,-93,827,854.5255737304688,14.579748153686523,64.38439178466797,-13.122075355537635,-6.248008083968807,-98,-264,-186,8,10,10,9,
63,36,-252,-139,687,744.844970703125,22.727468490600586,61.115928649902344,-19.774883990290764,-10.75536447467826,-23,649,-708,5,19,11,9,
64,36,-204,-118,765,800.4779663085938,17.120052337646484,59.95002365112305,-14.764562874286515,-8.47697345914,-122,909,-1779,8,11,9,11,
65,42,-246,-101,730,776.9279174804688,20.01376724243164,67.6751480102539,-18.45934542843933,-7.469545443853107,-29,-1298,1282,15,17,12,11,
66,42,-202,-183,840,883.115478515625,17.9753475189209,47.82139205932617,-13.22264562889438,-11.959540049732622,-275,-1759,843,15,21,8,14,
67,42,-247,-88,655,705.5338134765625,21.815078735351562,70.38704681396484,-20.49279034692115,-7.165062737062575,123,-1447,471,9,14,13,9,
68,42,-243,-130,668,722.6154174804688,22.416973114013672,61.85066223144531,-19.65030003195557,-10.364055371752329,271,592,-556,14,11,8,10,
69,42,-222,-43,776,808.2753295898438,16.243925094604492,79.0349349975586,-15.941687020365944,-3.0495575782080837,-121,-126,-894,12,18,12,8,
70,47,-212,-71,747,779.7396850585938,16.660005569458008,71.4808120727539,-15.776502184578064,-5.224362510653471,-9,866,881,5,6,6,8,
71,47,-183,-255,900,953.1600341796875,19.223812103271484,35.660743713378906,-11.06911327827046,-15.51740899797941,-291,-506,-1645,12,9,9,8,
72,47,-208,-94,749,783.0076904296875,16.946197509765625,65.67732238769531,-15.40512515762417,-6.894983075548338,-161,1118,221,6,7,6,6,
73,47,-225,-48,749,783.536865234375,17.072725296020508,77.95441436767578,-16.68797172639525,-3.5121775152567025,80,970,1512,9,11,7,9,
74,47,-212,-63,714,747.4683837890625,17.208314895629883,73.44650268554688,-16.476617931757975,-4.834882105092403,56,62,333,8,13,9,9,
75,54,-242,-102,717,763.5816650390625,20.11434555053711,67.14185333251953,-18.47721159828738,-7.676573547206169,365,-823,299,13,15,9,9,
76,54,-214,-153,798,840.243408203125,18.243186950683594,54.433292388916016,-14.755104442286934,-10.491525404329265,39,-212,-1060,7,14,9,6,
77,54,-162,-231,933,974.7276611328125,16.823402404785156,35.03764724731445,-9.566967727034935,-13.708912784530872,-574,-2610,-218,21,19,10,14,
78,54,-221,-56,674,711.5145874023438,18.686323165893555,75.77782440185547,-18.095695503621453,-4.51415275904835,13,563,471,14,11,8,9,
79,54,-218,-97,723,761.3553466796875,18.261943817138672,66.009765625,-16.638453204215814,-7.319626305331891,60,645,-479,14,13,8,14,
80,44,-222,-105,750,789.1824951171875,18.128320693969727,64.6837158203125,-16.33803249325848,-7.645822437431199,32,1365,825,11,10,12,12,
81,44,-218,-33,733,765.4423828125,16.738924026489258,81.38923645019531,-16.547051507122603,-2.4709201387305977,-19,1144,766,14,11,9,8,
82,44,-198,-70,758,786.5545043945312,15.483586311340332,70.5264663696289,-14.579955941041998,-5.105835331356153,-24,38,-71,9,8,7,8,
83,44,-201,-149,777,816.291015625,17.84709358215332,53.446956634521484,-14.254872507632653,-10.517331538136508,-354,-2494,354,11,10,8,8,
84,43,-265,-235,822,895.0609130859375,23.308618545532227,48.42974853515625,-17.221664890217724,-15.221541030560624,-184,-1871,-287,16,9,10,8,
85,43,-209,-202,855,903.055908203125,18.773710250854492,45.97179412841797,-13.381652603953054,-12.925559308421205,-360,-231,-421,7,11,9,9,
86,43,-220,-36,753,785.3056640625,16.48924446105957,80.70376586914062,-16.268900161405114,-2.627475207325496,-32,1702,35,9,11,10,10,
87,43,-220,-64,724,759.3892211914062,17.558576583862305,73.77667236328125,-16.84038578281239,-4.834523077881203,-3,949,1210,13,15,12,12,
88,43,-207,-124,731,769.7960815429688,18.26561737060547,59.07339859008789,-15.598962727478092,-9.269682943882263,-119,-681,-83,11,11,11,10,
89,49,-209,-77,729,762.2670288085938,16.98744773864746,69.77188873291016,-15.913280903997336,-5.797591275184572,17,-27,-41,8,9,6,6,
90,49,-224,-41,734,768.5134887695312,17.234201431274414,79.62467956542969,-16.94609007115727,-3.058167143178989,10,-307,365,12,14,9,10,
91,49,-213,-136,690,734.8231201171875,20.11339569091797,57.438255310058594,-16.849914662944954,-10.66571243754391,-107,-591,-96,8,11,8,8,
92,49,-247,-134,549,616.7382202148438,27.103904724121094,61.51621627807617,-23.609069880031285,-12.548860400513448,113,-1145,246,7,9,8,11,
93,49,-207,-67,729,760.7752685546875,16.61577796936035,72.06153106689453,-15.788723519729865,-5.052473597411594,-41,125,465,12,8,8,6,
94,53,-217,-57,720,754.147216796875,17.305564880371094,75.27934265136719,-16.722835024684237,-4.334666894953344,32,387,73,10,17,11,11,
95,53,-215,-45,746,777.6670532226562,16.404834747314453,78.17550659179688,-16.04951291037259,-3.3172952450401105,11,-53,632,13,15,11,10,
96,53,-262,-98,738,789.2350463867188,20.7564640045166,69.48863983154297,-19.388207991236868,-7.132876691312776,227,72,203,13,8,7,9,
97,53,-228,-58,736,772.6862182617188,17.724288940429688,75.72441101074219,-17.16200468799722,-4.304831286128019,18,9,49,9,11,8,9,
98,53,-210,-78,694,729.2598876953125,17.887548446655273,69.62030792236328,-16.736053845174066,-6.139972834898935,-12,-494,-157,11,9,9,8,
99,57,-248,-100,642,695.4624633789062,22.610450744628906,68.0361328125,-20.891368628116687,-8.267171787001107,89,-292,-607,11,13,6,6,
100,57,-216,-42,736,768.1900634765625,16.64317512512207,78.99347686767578,-16.330667753395158,-3.1341504046567166,-31,-16,1019,9,12,8,10,
101,57,-230,-80,683,725.1130981445312,19.62104034423828,70.8177719116211,-18.493187607016225,-6.334201608698911,102,-1613,661,12,10,11,12,
102,57,-182,-120,897,923.1104736328125,13.657645225524902,56.59787368774414,-11.370902936859013,-7.469319049058054,-276,237,282,21,20,13,17,
103,57,-234,-37,617,660.9190673828125,21.003067016601562,81.01187896728516,-20.735381350692474,-3.2092473676016446,120,441,-215,17,16,10,12,
104,59,-220,-71,748,782.9080200195312,17.171875,72.11051940917969,-16.32011350414922,-5.203161674061409,-177,1872,155,5,11,9,7,
105,59,-198,-174,705,752.665283203125,20.498083114624023,48.68751525878906,-15.252015287746916,-13.366462795436027,-304,-19,9,8,9,12,8,
106,59,-189,-152,748,786.3389892578125,17.963134765625,51.18881607055664,-13.907455643746799,-11.145481470414921,-200,-940,-239,14,13,13,11,
107,59,-231,-59,726,764.145263671875,18.177860260009766,75.66925048828125,-17.595711138779272,-4.428240128864337,134,-552,983,15,18,10,13,
108,59,-210,-135,800,838.04833984375,17.32902717590332,57.26115798950195,-14.511966889850859,-9.270085886473401,-301,-1301,-488,18,17,11,12,
109,62,-222,-84,726,763.8167114257812,18.102664947509766,69.27117919921875,-16.89661326833402,-6.313818198889861,88,1381,508,12,17,12,10,
110,62,-201,-124,801,835.0916137695312,16.425764083862305,58.32533264160156,-13.92739552434825,-8.539238951792193,-113,266,-113,8,17,10,8,
111,62,-239,-55,660,704.0923461914062,20.382308959960938,77.03736877441406,-19.843010558243357,-4.480210044654668,215,-323,305,18,16,10,12,
112,62,-178,-69,749,772.9462890625,14.296908378601074,68.80838012695312,-13.31400828426518,-5.121543866354,-363,198,811,12,16,10,13,
113,62,-268,-98,657,716.2939453125,23.474870681762695,69.91072082519531,-21.9716687551034,-7.863605481900074,96,-1914,237,17,16,9,12,
114,66,-162,-279,928,982.4810180664062,19.16807746887207,30.136966705322266,-9.490767589549575,-16.49758585691983,-135,-1964,396,13,12,9,10,
115,66,-249,-75,663,712.17626953125,21.41469383239746,73.23429107666016,-20.464842260009352,-6.045085517932201,-56,-528,574,22,15,13,9,
116,66,-96,-58,848,855.3853149414062,7.532048225402832,58.85744857788086,-6.443888637800545,-3.8879636474913943,-791,-506,-471,26,25,20,17,
117,66,-193,-91,752,781.6866455078125,15.838937759399414,64.75259399414062,-14.294264355012828,-6.685243123213258,-434,69,397,16,23,22,14,
118,66,-242,-88,808,848.0401000976562,17.674543380737305,70.0136489868164,-16.580599857861362,-5.956229516651644,-60,-726,254,10,19,10,12,
119,66,-210,-120,675,717.0250854492188,19.711673736572266,60.251583099365234,-17.030263077796754,-9.634252099779935,28,-1336,-138,13,11,5,11,
120,66,-205,-84,708,741.8524169921875,17.373432159423828,67.71501922607422,-16.041604444184284,-6.501548671482016,-126,2416,241,7,8,8,7,
121,66,-249,-80,699,746.32568359375,20.511648178100586,72.18537902832031,-19.489524749557056,-6.1534609430632585,-125,1643,1181,9,15,13,15,
122,66,-260,-75,714,763.55810546875,20.75432586669922,73.90605163574219,-19.908014915636468,-5.636929817561758,-155,320,-109,11,18,12,10,
123,69,-179,-96,730,757.7315063476562,15.546719551086426,61.791290283203125,-13.66422311446917,-7.278590204799779,-354,103,-688,14,22,13,11,
124,69,-227,-39,753,787.438232421875,17.00554847717285,80.24845886230469,-16.754805014138988,-2.8388892160474124,-43,139,-327,17,15,14,12,
125,69,-219,-74,648,687.997802734375,19.631032943725586,71.32670593261719,-18.561051509428026,-6.174591698188994,208,499,-202,14,19,12,14,
126,69,-254,-108,568,631.50927734375,25.914535522460938,66.96162414550781,-23.716472876229265,-9.84706290107507,331,-937,402,9,13,9,7,
127,69,-240,-64,729,770.1538696289062,18.813039779663086,75.06548309326172,-18.15725024739367,-4.766792164543164,92,-853,1136,9,19,12,8,
128,70,-213,-218,852,904.8740234375,19.681434631347656,44.331336975097656,-13.614724022662076,-13.940699068392737,-353,-2751,1064,17,16,11,8,
129,70,-214,-66,757,789.4307861328125,16.477846145629883,72.85649108886719,-15.728625936581933,-4.795785293810789,39,209,-37,14,16,13,11,
130,70,-273,-127,831,883.865966796875,19.91480827331543,65.04869079589844,-17.991166935651197,-8.261250688688913,29,-631,-158,17,10,9,12,
131,70,-243,-69,825,862.8064575195312,17.021892547607422,74.14495086669922,-16.358053146291464,-4.5869323940120035,105,1278,-139,8,7,10,7,
132,70,-238,-66,642,687.8692016601562,21.040040969848633,74.49761199951172,-20.242608709608128,-5.505912965257045,54,417,-1289,14,10,10,10,
133,74,-194,-90,709,740.5518188476562,16.78302764892578,65.10919189453125,-15.18679789267476,-6.980468911978471,-411,864,1033,14,16,14,12,
134,74,-206,-90,741,774.3494262695312,16.874418258666992,66.39645385742188,-15.428151338731768,-6.674378621418502,-174,865,1093,14,21,13,16,
135,74,-201,-94,706,740.04931640625,17.44567108154297,64.93291473388672,-15.759707854397163,-7.297340111974522,-268,487,427,8,15,10,11,
136,74,-210,-73,789,819.7255859375,15.734712600708008,70.82835388183594,-14.84371254254676,-5.1091979534322585,-66,12,-715,11,12,9,9,
137,74,-183,-32,746,768.7841186523438,13.981706619262695,80.07840728759766,-13.770783401617635,-2.3855784487500693,-105,1250,-1303,9,17,12,11,
138,78,-308,-121,572,660.824462890625,30.048622131347656,68.5489730834961,-27.78042676030109,-10.550646202329933,623,-742,63,14,19,8,14,
139,78,-218,-75,759,793.2401733398438,16.893617630004883,71.01168823242188,-15.951417652233056,-5.425357730672303,-215,-2106,92,16,25,10,12,
140,78,-243,-158,693,751.1737670898438,22.695323944091797,56.96421432495117,-18.874343214416264,-12.142130689198137,-6,-153,388,6,9,8,7,
141,78,-177,-68,750,773.597412109375,14.185811996459961,68.98091125488281,-13.22650193058478,-5.042865455538985,-351,-104,766,11,12,8,8,
142,78,-209,-87,732,766.20751953125,17.183048248291016,67.39628601074219,-15.829286598911855,-6.519782581085,-268,-3104,1868,13,20,9,11,
143,85,-200,-106,549,593.8324584960938,22.40444564819336,62.07292175292969,-19.681747865457552,-10.282489920735262,193,-742,1126,19,19,13,14,
144,85,-271,-68,782,830.4149780273438,19.659250259399414,75.91094970703125,-19.046952208624297,-4.69702569991191,49,-529,-135,13,16,12,13,
145,85,-223,-84,609,653.9617919921875,21.367919921875,69.35626983642578,-19.93772129361277,-7.37991014755208,-6,-1170,-552,11,11,7,6,
146,85,-210,-87,747,780.8187866210938,16.922571182250977,67.49315643310547,-15.601702610103215,-6.397265148827691,-207,1410,-733,5,7,8,8,
147,85,-230,-174,774,825.9854736328125,20.43400001525879,52.88794708251953,-16.168031460950832,-12.160883744257312,-465,1984,-348,9,12,9,10,
148,85,-222,-79,563,610.3228759765625,22.709224700927734,70.40837097167969,-21.33017770876145,-7.437215118487312,416,-1674,1286,29,19,12,12,
149,85,-191,-98,736,766.6687622070312,16.258569717407227,62.83467483520508,-14.426021373312798,-7.34396795373215,-261,718,1184,16,11,15,12,
150,85,-224,-34,720,754.805908203125,17.465322494506836,81.36628723144531,-17.2634060409563,-2.581744247229825,-34,545,-121,9,7,6,5,
151,85,-207,-87,678,714.2142333984375,18.32168197631836,67.20015716552734,-16.847718537890373,-6.9967005802695175,-156,902,-917,18,17,14,13,
152,85,-228,-84,758,795.9924926757812,17.771432876586914,69.77188873291016,-16.64463695658724,-6.057624473518534,25,17,-626,8,9,7,9,
153,86,-285,-63,801,852.522705078125,20.0194091796875,77.53204345703125,-19.530094766819452,-4.2379252080597904,234,-47,-321,16,17,13,16,
154,86,-217,-173,705,757.65625,21.48491096496582,51.433128356933594,-16.6431236310191,-13.19910946476107,-141,-736,574,11,13,12,12,
155,86,-245,-181,753,812.2776489257812,22.022600173950195,53.54018020629883,-17.55499013388937,-12.875319292778796,-150,-1008,859,23,14,16,17,
156,86,-156,-155,805,834.4974365234375,15.277151107788086,45.18024444580078,-10.774193013757882,-10.704310012115977,-447,-1301,1240,16,11,10,10,
157,86,-277,-84,540,612.6867065429688,28.190837860107422,73.12696838378906,-26.878952829961346,-7.880131906365203,503,-504,169,6,9,7,6,
158,91,-221,-90,730,768.0110473632812,18.099462509155273,67.83858489990234,-16.723674751072068,-6.729715411605648,43,25,-1133,11,10,11,11,
159,91,-203,-81,780,810.043212890625,15.651190757751465,68.24397277832031,-14.513251673696233,-5.738863314780052,-286,-1946,193,12,9,9,9,
160,91,-209,-72,736,768.4796752929688,16.715242385864258,70.98807525634766,-15.781262409803094,-5.376011410868325,41,2188,-480,7,7,8,6,
161,91,-234,-84,630,677.2828369140625,21.533918380737305,70.24993133544922,-20.212211558938066,-7.124454251184975,-69,-1862,824,64,22,21,28,
162,97,-269,-28,819,862.4998779296875,18.2723331451416,84.05469512939453,-18.172812474080544,-1.860364082203923,133,-388,1010,18,20,17,17,
163,97,-252,-93,614,670.185791015625,23.62649154663086,69.74028778076172,-22.087068071863506,-7.976532433953343,662,-1521,1237,14,8,10,10,
164,97,-223,-99,741,780.13525390625,18.22294807434082,66.05799865722656,-16.609536662341462,-7.290553658037076,38,1449,644,9,7,5,6,
165,97,-184,-145,777,811.5479125976562,16.775999069213867,51.75657272338867,-13.104465717657682,-10.292353464721767,-217,-16,-1614,9,8,9,8,
166,97,-239,-112,711,758.41015625,20.364152908325195,64.8879165649414,-18.368837094900027,-8.492349076909093,-106,-782,213,8,9,9,14,
167,98,-201,-69,726,756.4641723632812,16.313547134399414,71.05028533935547,-15.409138498920257,-5.233442306106077,-413,-752,0,5,9,8,9,
168,98,-222,-144,744,789.6556396484375,19.576486587524414,57.02695846557617,-16.327969353082548,-10.507135402610555,-264,84,-324,8,9,11,11,
169,98,-216,-107,759,796.3579711914062,17.61712074279785,63.64411544799805,-15.737758460353978,-7.721711049173192,-255,129,1074,6,7,9,7,
170,98,-225,-114,737,778.96728515625,18.890981674194336,63.12674331665039,-16.788759054370853,-8.41532427640365,-99,354,778,7,7,11,10,
171,98,-271,-94,728,782.4710693359375,21.50294303894043,70.86698913574219,-20.26353497272307,-6.8997342694561095,318,84,72,5,9,12,11,
172,104,-225,-100,732,772.3010864257812,18.58919334411621,66.03414916992188,-16.93802593878776,-7.4397280517347495,-194,64,343,7,9,11,9,
173,104,-203,-117,747,782.8837890625,17.4123592376709,60.039268493652344,-15.028397164989876,-8.594908079001792,-133,193,-583,6,8,8,6,
174,104,-206,-123,765,801.7418823242188,17.410856246948242,59.15555191040039,-14.888602864451846,-8.824938950947674,-181,380,-1977,7,9,9,7,
175,104,-258,-124,759,811.1849365234375,20.661575317382812,64.32670593261719,-18.54523409115217,-8.792866594163408,63,-112,955,8,7,10,11,
176,104,-237,-155,687,743.0767211914062,22.39975357055664,56.811336517333984,-18.59908598735725,-12.039863837808266,40,-204,402,6,8,11,14,
177,105,-201,-101,741,774.3920288085938,16.884807586669922,63.317596435546875,-15.043864341039773,-7.494146215455608,-110,-89,110,8,11,11,11,
178,105,-227,-90,729,768.810791015625,18.517009735107422,68.36957550048828,-17.173201463506178,-6.722682971164936,-172,-148,604,6,7,8,7,
179,105,-210,-85,734,768.1672973632812,17.150768280029297,67.96046447753906,-15.865373747883279,-6.3529583003228876,-347,-617,463,5,8,11,11,
180,105,-294,-121,726,792.56103515625,23.64736557006836,67.62635803222656,-21.774177904806297,-8.78166731961931,494,505,-2206,16,13,11,12,
181,105,-244,-77,770,811.39697265625,18.378887176513672,72.48249816894531,-17.500609604806787,-5.445452868862283,-70,1406,280,10,13,13,12,
182,109,-181,-78,678,706.0658569335938,16.20672035217285,66.68355560302734,-14.85359511148714,-6.342483547147025,-260,-11,867,22,14,18,20,
183,109,-286,-39,832,880.6480712890625,19.13117218017578,82.2319564819336,-18.95108600215829,-2.5382062998852337,80,-126,1194,26,16,15,21,
184,109,-207,-44,676,708.3508911132812,17.380809783935547,77.99678039550781,-16.991393077071717,-3.561283395612033,111,-297,449,28,16,18,16,
185,109,-291,-102,528,611.4483032226562,30.2836971282959,70.680419921875,-28.41921842597299,-9.602807043759473,701,-1914,38,21,13,13,13,
186,109,-207,-85,719,753.0172729492188,17.285409927368164,67.6722640991211,-15.955703070976746,-6.481316662109203,-198,2044,1158,9,6,8,11,
187,110,-325,-115,642,728.7070922851562,28.23343849182129,70.5106430053711,-26.487041504956924,-9.080021483499799,205,-822,-862,19,11,14,13,
188,110,-210,-45,698,730.2937622070312,17.100435256958008,77.90222930908203,-16.711664483560693,-3.532748813257894,-289,-101,-482,12,11,16,17,
189,110,-213,-277,804,876.6492919921875,23.488210678100586,37.554386138916016,-14.061933678157475,-18.419734422985375,-255,-863,559,6,7,6,8,
190,110,-188,-243,829,884.1006469726562,20.33307456970215,37.723575592041016,-12.27742855054477,-15.953407642020721,-517,426,-464,27,19,20,18,
191,110,-251,-77,776,819.2105712890625,18.690187454223633,72.94225311279297,-17.841960959715905,-5.393359295640742,-59,537,941,16,17,11,14,
192,116,-281,-67,779,830.8375244140625,20.344276428222656,76.58607482910156,-19.768033813920983,-4.625441182041981,284,-172,140,40,24,25,20,
193,116,-187,-245,852,906.0342407226562,19.885520935058594,37.34902572631836,-11.911112988682087,-15.688618904173515,-548,-647,329,9,9,7,6,
194,116,-221,-69,762,796.3956298828125,16.898378372192383,72.65757751464844,-16.111069322485484,-4.970358319170332,6,1821,-885,9,6,11,11,
195,116,-225,-56,648,688.2332153320312,19.685901641845703,76.02062225341797,-19.08218380616793,-4.667189155672425,132,-710,-150,13,12,12,10,
196,116,-296,-67,671,736.4414672851562,24.334932327270508,77.24291229248047,-23.6990652899848,-5.2198755696784085,624,-446,-329,15,12,16,13,
197,116,-265,-68,751,799.2809448242188,20.014354705810547,75.60511779785156,-19.362760298001582,-4.880422221264758,196,-430,470,13,12,9,9,
198,116,-140,-96,776,794.3500366210938,12.336989402770996,55.55733108520508,-10.151101113897951,-6.941364225865047,-603,428,1069,24,14,20,11,
199,116,-234,-118,634,686.0291748046875,22.456130981445312,63.235958099365234,-19.943502430206745,-9.904376802463172,114,-1895,217,19,9,15,17,
200,116,-158,-315,904,970.26025390625,21.295204162597656,26.63323402404785,-9.371947191378373,-18.94468398864239,-577,-762,98,11,8,13,9,
201,116,-207,-54,775,803.9838256835938,15.429195404052734,75.37604522705078,-14.91986707030376,-3.8512006951940485,-280,682,924,9,9,9,6,
202,120,-158,-207,834,873.7098999023438,17.33837890625,37.34975051879883,-10.418577931423023,-13.704871083710307,-498,700,-1605,21,12,15,10,
203,120,-223,-97,717,757.1175537109375,18.733158111572266,66.48869323730469,-17.12984446074644,-7.360822665682006,-7,50,-286,34,35,41,49,
204,120,-242,-154,674,732.4998168945312,23.05194664001465,57.52519226074219,-19.291568608102953,-12.13635608838092,74,-1818,594,19,30,24,29,
205,120,-251,-47,761,802.7023315429688,18.547679901123047,79.39115905761719,-18.2216439114343,-3.3567147946169325,-90,-126,0,17,20,14,18,
206,125,-199,-97,742,774.3216552734375,16.61075782775879,64.01025390625,-14.89207630856484,-7.196402523470457,-275,761,1197,14,11,16,18,
207,125,-234,-384,804,921.2100830078125,29.21664047241211,31.352693557739258,-14.715151441774617,-24.635434703161945,-415,-2451,-950,12,12,12,12,
208,125,-285,-77,643,707.5330200195312,24.659198760986328,74.87796020507812,-23.75384071957155,-6.247807754476087,288,-469,-65,9,11,9,11,
209,125,-219,-77,704,741.2867431640625,18.247722625732422,70.62519073486328,-17.183458506845987,-5.962264388429595,-69,-1305,793,23,19,14,16,
210,125,-359,-137,504,633.771240234375,37.320552825927734,69.10909271240234,-34.503072683519,-12.483961790993163,411,-2708,-130,21,11,14,7,
211,126,-198,-108,749,782.2205810546875,16.755971908569336,61.386043548583984,-14.662542866970519,-7.936092640906589,-435,501,51,11,8,13,11,
212,126,-204,-120,635,677.6732177734375,20.439363479614258,59.5308952331543,-17.51948038417119,-10.199520039033887,126,772,-594,17,14,8,8,
213,126,-213,-54,732,764.270263671875,16.7070255279541,75.77096557617188,-16.18246679455253,-4.051645647110416,67,88,51,32,19,25,16,
214,126,-278,-83,698,755.8948364257812,22.568368911743164,73.37327575683594,-21.578524426375253,-6.303996081405599,165,550,-192,12,8,11,8,
215,126,-219,-108,750,788.7490234375,18.031902313232422,63.7463264465332,-16.120289479485123,-7.869987814447726,96,-300,847,9,5,9,9,
216,127,-214,-73,711,746.0870971679688,17.639291763305664,71.16117858886719,-16.668253918652358,-5.6150203946150885,-121,411,-142,9,9,8,10,
217,127,-203,-204,752,805.1887817382812,20.94001007080078,44.855228424072266,-14.602689581659739,-14.676235420636395,70,-738,265,6,9,7,5,
218,127,-234,-177,787,839.9130859375,20.443973541259766,52.89201736450195,-16.176681219617734,-12.165492429466228,60,154,-451,26,14,17,15,
219,127,-216,-117,770,808.2357177734375,17.692049026489258,61.55358123779297,-15.500617600841588,-8.323366905600201,-271,242,58,11,11,9,8,
220,127,-223,-112,747,787.579833984375,18.470495223999023,63.328826904296875,-16.448051795510143,-8.175622619031845,3,-437,774,13,6,8,9,
221,132,-224,-81,704,743.2045288085938,18.690919876098633,70.11640930175781,-17.541560146532472,-6.256952243038138,20,-192,552,9,9,8,12,
222,132,-193,-118,726,760.4268798828125,17.30437660217285,58.554847717285156,-14.70277660825406,-8.927004008143205,63,-163,-530,12,10,13,11,
223,132,-217,-114,762,800.4555053710938,17.82996940612793,62.28153610229492,-15.72947459857492,-8.187842477231369,-60,-20,492,9,8,10,10,
224,132,-182,-138,760,793.5792236328125,16.72496223449707,52.82532501220703,-13.258257861809886,-10.014399886856305,28,-297,11,15,9,10,13,
225,132,-201,-72,750,779.7980346679688,15.88815689086914,70.28878021240234,-14.937133184135805,-5.297756470847396,-206,12,804,10,8,7,8,
226,135,-201,-84,711,743.6248779296875,17.032609939575195,67.31611633300781,-15.68197436684227,-6.485985050223226,-111,76,-623,17,13,11,9,
227,135,-212,-123,724,764.36181640625,18.700557708740234,59.874629974365234,-16.102439309672857,-9.260216414610191,-15,-512,-1000,11,12,8,10,
228,135,-234,-102,736,779.0096435546875,19.125829696655273,66.44438934326172,-17.48051212634167,-7.523653494329601,-50,-381,-21,9,5,7,9,
229,135,-225,-124,694,740.0250244140625,20.311607360839844,61.13685607910156,-17.700644825924524,-9.646093310497452,-54,-373,748,6,6,5,6,
230,135,-253,-70,681,729.8424682617188,21.078134536743164,74.53118896484375,-20.28256012053457,-5.503762087785221,73,180,399,10,6,9,7,
231,142,-252,-133,698,753.9210815429688,22.20470428466797,62.172428131103516,-19.52708871523551,-10.160782192753846,143,-238,-89,12,8,10,9,
232,142,-228,-121,727,771.4622192382812,19.545106887817383,62.04155731201172,-17.190080108664848,-9.023816188738675,-149,-433,706,9,6,8,10,
233,142,-207,-92,713,748.1189575195312,17.623178482055664,66.03414916992188,-16.062988459212,-7.063834912032279,-58,-270,-302,8,5,6,8,
234,142,-201,-67,729,759.1646728515625,16.203516006469727,71.56185150146484,-15.352971176698825,-5.063220527140654,-137,-198,-940,7,5,7,8,
235,142,-225,-148,744,791.24267578125,19.897104263305664,56.66032791137695,-16.52076477343835,-10.780531958103717,-220,-128,557,15,12,10,11,
236,141,-263,-160,732,794.098876953125,22.807411193847656,58.68155288696289,-19.341202965871872,-11.6238842431432,44,-485,-194,16,12,10,14,
237,141,-231,-121,764,807.2781372070312,18.84393310546875,62.350563049316406,-16.62740628296898,-8.620342281436931,-84,-458,389,8,7,10,6,
238,141,-217,-63,736,769.9052124023438,17.064916610717773,73.80766296386719,-16.370821950708223,-4.693661787338358,47,-52,630,14,7,9,10,
239,141,-229,-120,737,781.0313720703125,19.328556060791016,62.34120559692383,-17.049755794786673,-8.838102984896036,-28,217,-6,9,4,7,6,
240,141,-224,-171,760,810.5658569335938,20.34286880493164,52.638389587402344,-16.042490841893066,-12.178835580684343,-62,184,-300,12,7,7,10,
241,148,-237,-72,725,766.1448974609375,18.860572814941406,73.09820556640625,-18.01951839137429,-5.392442899808626,-61,-100,-754,15,10,10,9,
242,148,-234,-68,711,751.5989379882812,18.91596031188965,73.7930908203125,-18.139777387138103,-5.190863948891344,71,-41,132,12,9,9,9,
243,148,-216,-129,697,741.016845703125,19.845474243164062,59.14984130859375,-16.947261477493267,-10.025421323360424,189,-67,351,8,10,8,7,
244,148,-222,-140,737,782.338134765625,19.599559783935547,57.759613037109375,-16.48502643341539,-10.308649866888942,76,-40,787,8,8,10,10,
245,146,-205,-141,780,818.72216796875,17.689828872680664,55.4759407043457,-14.500602742647864,-9.91689604461214,-217,84,494,7,8,8,9,
246,146,-224,-149,772,817.5335083007812,19.210540771484375,56.365352630615234,-15.90212531706048,-10.501165788221519,53,-422,-592,9,6,8,6,
247,146,-217,-71,743,777.28955078125,17.07975959777832,71.87928771972656,-16.21098750096524,-5.240876802138352,-73,-68,424,5,11,7,8,
248,146,-271,-168,752,816.8041381835938,22.97506332397461,58.20055389404297,-19.37690366933344,-11.869288770583386,267,-258,-788,8,12,8,8,
249,146,-227,-103,713,755.3191528320312,19.268264770507812,65.59071350097656,-17.48975224495447,-7.83762798653001,-83,-189,-755,6,7,8,8,
250,154,-215,-90,728,764.4010620117188,17.75090789794922,67.28226470947266,-16.335775567186587,-6.761645484277511,-64,-294,783,9,8,9,10,
251,154,-214,-60,732,764.9967041015625,16.887348175048828,74.33477783203125,-16.244673218341095,-4.49842592516345,-42,104,765,8,6,8,8,
252,154,-213,-94,687,725.3785400390625,18.719066619873047,66.18408203125,-17.075991402361872,-7.4457570376485185,-60,-87,658,10,8,10,8,
253,154,-219,-209,768,825.509521484375,21.510961532592773,46.33449935913086,-15.384226688827175,-14.6655885918892,-51,-112,-368,8,7,8,11,
254,154,-211,-78,722,756.2334594726562,17.303468704223633,69.70899200439453,-16.201388524973886,-5.920173301965333,-46,563,121,9,6,9,10,
255,158,-214,-73,756,789.0887451171875,16.64898109436035,71.16117858886719,-15.735621481884527,-5.308124409180832,-51,-206,-135,11,9,9,11,
256,158,-217,-68,762,795.2088012695312,16.61460304260254,72.59771728515625,-15.835972552205062,-4.905475245799848,-167,260,-1216,13,8,10,11,
257,158,-205,-224,768,825.8480224609375,21.57046890258789,42.46002960205078,-14.372778684461851,-15.737849370610602,-24,8,15,6,6,6,7,
258,158,-208,-149,786,826.5960083007812,18.029150009155273,54.380523681640625,-14.574248901985165,-10.384749347972008,-102,-441,1832,7,8,11,17,
259,158,-225,-60,735,771.005859375,17.57710075378418,75.06548309326172,-16.967342667827307,-4.463294492367628,-40,108,272,10,6,10,9,
260,157,-208,-163,807,849.1654663085938,18.129371643066406,51.91205978393555,-14.178664381147685,-11.066790659848115,-141,73,-346,8,8,6,7,
261,157,-219,-112,753,792.1578369140625,18.088205337524414,62.910640716552734,-16.04904338758228,-8.128054240489151,-156,1,-200,11,8,9,5,
262,157,-229,-153,740,789.5885009765625,20.411911010742188,56.24858093261719,-16.85942204586882,-11.172985607846755,-46,-96,-472,6,6,5,4,
263,157,-240,-78,712,755.3992309570312,19.513967514038086,71.9926528930664,-18.524660565198435,-5.926734432897017,142,7,-646,6,9,6,7,
264,157,-213,-101,702,740.5227661132812,18.560041427612305,64.6272964477539,-16.716397784531306,-7.839012102369528,15,-185,524,7,8,7,7,
265,166,-218,-100,685,725.7747802734375,19.29478645324707,65.35494995117188,-17.479747726899106,-7.919624198072318,107,-60,728,8,7,6,7,
266,166,-218,-117,747,786.9066162109375,18.323184967041016,61.77418899536133,-16.083272854659143,-8.55063912518276,62,-360,726,6,5,7,9,
267,166,-214,-93,723,759.7196655273438,17.88437271118164,66.50787353515625,-16.36066767945811,-7.03141720346143,-49,-136,835,9,8,8,6,
268,166,-225,-62,702,739.7789916992188,18.387718200683594,74.59105682373047,-17.706725115148476,-4.807530333763119,25,-52,-379,12,6,9,9,
269,166,-231,-96,726,767.888671875,19.010047912597656,67.42967224121094,-17.5071528709343,-7.181802406150937,152,-55,-1401,11,7,10,8,
270,168,-234,-149,762,810.926025390625,20.0023136138916,57.50934600830078,-16.771705135026906,-10.587713165577577,19,-509,-908,8,8,7,8,
271,168,-221,-118,753,793.5830078125,18.400606155395508,61.89713668823242,-16.169732979446913,-8.55117413944037,-16,-279,-30,10,8,6,8,
272,168,-212,-71,740,773.0361938476562,16.80877113342285,71.4808120727539,-15.91692452552004,-5.269793837101744,51,-92,1083,9,7,6,8,
273,168,-212,-108,761,797.326171875,17.35955238342285,63.000709533691406,-15.419765039599167,-7.78479954283489,-117,56,959,7,6,6,6,
274,168,-233,-168,774,825.5840454101562,20.359098434448242,54.203548431396484,-16.393011770743605,-11.741254353254664,19,-59,916,8,5,7,9,
275,163,-232,-126,741,786.6263427734375,19.608171463012695,61.48996353149414,-17.153362272958717,-9.217210857155923,78,69,-849,7,9,8,7,
276,163,-217,-66,703,738.6839599609375,17.87957191467285,73.07984161376953,-17.08353712132791,-5.126104198819098,12,-335,-923,9,9,8,7,
277,163,-225,-84,723,761.846435546875,18.373523712158203,69.52445983886719,-17.17763291779195,-6.330213702198797,51,-84,-67,7,5,8,9,
278,163,-217,-96,756,792.3641967773438,17.423437118530273,66.1322250366211,-15.894325552327008,-6.958846978426405,71,-438,1,5,6,7,10,
279,163,-220,-203,779,834.5358276367188,21.018312454223633,47.29750442504883,-15.284945791337073,-14.078378754423786,24,36,1605,6,5,5,7,
280,172,-229,-99,713,755.3880004882812,19.28319549560547,66.61713409423828,-17.64722708246782,-7.530762062931854,-59,-22,898,4,13,9,9,
281,172,-198,-63,739,767.6548461914062,15.701947212219238,72.3467025756836,-14.947176743043084,-4.707451877594846,-235,143,618,19,10,10,9,
282,172,-233,-138,716,765.4992065429688,20.715234756469727,59.35926055908203,-17.720659561738014,-10.385750384280422,-38,-699,-58,11,10,7,8,
283,172,-226,-75,726,764.052978515625,18.156782150268555,71.63794708251953,-17.204974974585628,-5.633266866362555,48,-463,-894,15,10,10,9,
284,174,-213,-71,773,804.9465942382812,16.194021224975586,71.56185150146484,-15.344007928255676,-5.06032805927384,-156,-83,48,15,15,9,8,
285,174,-205,-58,747,776.7869873046875,15.91614818572998,74.19924926757812,-15.302053428153956,-4.282063062822711,-142,-296,-10,11,9,8,8,
286,174,-222,-143,705,752.8333129882812,20.532262802124023,57.20899963378906,-17.150701171023194,-10.949812926245533,-133,-230,1098,8,7,7,7,
287,174,-241,-103,699,746.5192260742188,20.551319122314453,66.85548400878906,-18.83425429291045,-7.930608065745746,81,-359,12,13,10,13,8,
288,174,-242,-81,692,737.5560913085938,20.24092674255371,71.49085235595703,-19.15413876781578,-6.3050636671997795,60,-569,675,17,11,14,11,
289,180,-231,-30,712,749.1361694335938,18.114051818847656,82.5975341796875,-17.960132456710145,-2.295087611417277,16,-125,947,8,9,11,12,
290,180,-214,-84,753,787.3125,16.975603103637695,68.5655517578125,-15.772045038101243,-6.124662561504091,35,-10,410,9,12,8,9,
291,180,-215,-160,789,833.2742919921875,18.759126663208008,53.34015655517578,-14.952506853590032,-11.07031957697308,21,387,-791,16,12,12,12,
292,180,-219,-108,765,803.0255126953125,17.700559616088867,63.7463264465332,-15.826103791146055,-7.729209064285218,-12,386,-1192,5,7,9,8,
293,180,-258,-83,676,728.3055419921875,21.844839096069336,72.1635513305664,-20.747296559777546,-6.543825016529706,112,-14,34,10,8,11,10,
294,179,-211,-63,729,761.531982421875,16.805505752563477,73.37237548828125,-16.08559287332825,-4.745387115685901,-67,-105,1105,9,11,12,9,
295,179,-209,-109,771,806.2276611328125,16.997678756713867,62.453102111816406,-15.024496457163703,-7.770043324346524,-33,305,171,9,10,12,8,
296,179,-204,-210,837,886.7271118164062,19.277164459228516,44.165672302246094,-13.300574800568661,-13.699281117819933,-64,62,78,10,7,9,7,
297,179,-225,-92,759,796.9755249023438,17.756391525268555,67.75758361816406,-16.398558672264343,-6.628797548293497,-68,249,-878,15,7,13,7,
298,179,-222,-138,708,754.7131958007812,20.262277603149414,58.13042068481445,-17.106663223899176,-10.535861974342078,-80,-332,-167,9,12,7,12,
299,180,-207,-124,696,736.6417236328125,19.118999481201172,59.07339859008789,-16.3201952349724,-9.690822857287317,-2,-304,-475,12,11,13,9,
300,180,-199,-137,764,801.2902221679688,17.546316146850586,55.4511604309082,-14.379863880281988,-9.844469366204331,-141,-527,475,15,9,9,8,
301,180,-226,-84,752,789.706298828125,17.77472496032715,69.60758209228516,-16.629536483784612,-6.106026776295305,13,-376,582,10,12,7,7,
302,180,-208,-96,770,803.35546875,16.566265106201172,65.22148895263672,-15.005634255323224,-6.86317680411645,-85,46,-293,11,14,6,7,
303,180,-206,-148,742,784.1581420898438,18.870933532714844,54.301055908203125,-15.230456406945766,-10.879111714132401,-9,-418,203,7,8,7,7,
304,186,-225,-103,737,777.43359375,18.557876586914062,65.39937591552734,-16.822863421672302,-7.613341782541451,-45,-277,-110,7,4,4,5,
305,186,-218,-113,764,802.4892578125,17.815052032470703,62.59663391113281,-15.7627565940062,-8.094827492531785,-54,-202,-395,8,8,5,5,
306,186,-214,-69,745,778.1914672851562,16.792207717895508,72.12594604492188,-15.961810414657812,-5.086932232308158,-77,-118,-72,8,7,7,6,
307,186,-230,-135,755,800.7184448242188,19.452938079833984,59.58537673950195,-16.69291321731964,-9.706348268405343,10,-182,600,6,8,7,7,
308,186,-219,-213,771,829.319580078125,21.61334228515625,45.79175567626953,-15.31181205596618,-14.882466322339372,-182,-179,651,8,7,8,6,
309,192,-207,-105,726,762.2007446289062,17.72734260559082,63.10032272338867,-15.758426223263143,-7.918188803911677,-32,-152,-67,13,9,8,12,
310,192,-229,-74,720,759.1554565429688,18.480058670043945,72.08888244628906,-17.556792932272785,-5.593888463775742,-8,-244,-317,8,7,7,8,
311,192,-218,-122,759,799.0550537109375,18.21623420715332,60.763671875,-15.832276335096008,-8.78228832600252,38,-252,195,6,7,8,7,
312,192,-228,-126,734,778.8555908203125,19.53789520263672,61.0700569152832,-17.02189954266014,-9.309986316746723,41,-185,-177,6,6,6,7,
313,192,-234,-127,708,756.4053344726562,20.606645584106445,61.50627136230469,-18.020542045063277,-9.665708249756689,-8,-196,74,11,7,7,10,
314,195,-219,-102,720,759.450439453125,18.546531677246094,65.02269744873047,-16.760180424780092,-7.718586066876974,-39,-230,594,6,8,7,10,
315,195,-216,-114,719,759.3504028320312,18.760042190551758,62.172428131103516,-16.52619439600601,-8.634363199132025,-26,-486,576,7,9,7,9,
316,195,-216,-120,725,765.9510498046875,18.81808090209961,60.941890716552734,-16.379748093947658,-9.013546250285252,-71,-364,219,9,9,7,7,
317,195,-228,-62,716,753.978759765625,18.26073455810547,74.78431701660156,-17.6015561044676,-4.716782554114844,-12,-112,-354,7,8,6,7,
318,195,-236,-68,727,767.364990234375,18.66432762145996,73.92330169677734,-17.911400956731498,-5.083930542770719,110,129,184,9,7,8,8,
319,194,-244,-135,737,787.9910888671875,20.72295379638672,61.04166793823242,-18.03802831189362,-9.864676021187272,-29,97,253,7,6,8,7,
320,194,-231,-135,742,788.7648315429688,19.826574325561523,59.69377517700195,-17.029434423266487,-9.854902628299431,-7,-168,-139,7,6,7,5,
321,194,-207,-92,735,769.1150512695312,17.126916885375977,66.03414916992188,-15.613126759392099,-6.870056258202277,-20,-287,317,9,7,8,9,
322,194,-236,-59,750,788.4649658203125,17.968393325805664,75.960693359375,-17.416511487165874,-4.2913938513030985,177,-27,746,7,6,7,8,
323,194,-231,-136,747,793.6409912109375,19.738489151000977,59.50923156738281,-16.921642945665038,-9.867025011287764,107,-63,348,9,9,10,11,
324,200,-230,-136,758,803.7163696289062,19.415828704833984,59.40043640136719,-16.628834035027147,-9.742118064481074,200,-255,-170,10,10,8,9,
325,200,-225,-101,712,753.505126953125,19.10345458984375,65.82185363769531,-17.373803329028632,-7.703124511193628,65,-267,-153,7,8,6,4,
326,200,-197,-144,758,796.3096313476562,17.84248924255371,53.8307991027832,-14.323191057760766,-10.41835249038304,-112,164,245,9,7,10,13,
327,200,-216,-111,718,757.9584350585938,18.68516731262207,62.79841995239258,-16.55741675668285,-8.421024195391682,-57,-155,736,14,9,7,7,
328,200,-254,-73,738,783.8934936523438,19.70066261291504,73.96214294433594,-18.90643137007374,-5.34340582797669,180,-129,419,10,7,8,8,
329,200,-214,-184,774,823.8494873046875,20.03152084350586,49.30677032470703,-15.055595280884905,-12.905387006645093,-8,-206,-689,9,6,7,6,
330,200,-233,-63,717,756.5361938476562,18.602903366088867,74.86669921875,-17.937696060231758,-4.776796072148761,95,46,-207,9,13,8,7,
331,200,-201,-120,725,761.85693359375,17.892684936523438,59.15861129760742,-15.297386897369025,-9.062390533670309,-102,-160,394,11,6,8,9,
332,200,-222,-90,735,773.0517578125,18.04958724975586,67.92879486083984,-16.68881494525203,-6.685633446497179,-77,-84,283,6,7,8,10,
333,207,-213,-111,702,741.9528198242188,18.886144638061523,62.471309661865234,-16.683235047183473,-8.604047918034604,-108,-231,945,10,7,9,11,
334,207,-223,-84,774,809.8524780273438,17.11019515991211,69.35626983642578,-15.983397407102391,-5.953574911136262,-89,-76,771,10,10,12,10,
335,207,-227,-96,747,786.6091918945312,18.257659912109375,67.07279968261719,-16.772986368697843,-7.010014051454408,133,-21,277,9,9,9,8,
336,207,-199,-171,782,824.843017578125,18.545589447021484,49.32379150390625,-13.96080213384957,-11.964885197572967,-113,186,-99,15,11,12,14,
337,207,-215,-93,737,773.3323974609375,17.63047981262207,66.60536193847656,-16.14192308404808,-6.907036925318126,-164,58,-855,8,10,16,10,
338,208,-222,-84,714,752.4201049804688,18.386638641357422,69.27117919921875,-17.16041215145455,-6.409849273341476,-123,-18,275,9,6,9,10,
339,208,-211,-80,771,803.34423828125,16.311559677124023,69.232666015625,-15.227482546927012,-5.715199030259544,-241,-71,449,8,8,11,7,
340,208,-259,-134,762,815.8927612304688,20.939395904541016,62.6406364440918,-18.508399651384366,-9.45292881275509,128,-280,814,8,14,12,8,
341,208,-207,-109,739,775.1458129882812,17.56403350830078,62.22657775878906,-15.488593928157444,-8.083649792373585,-190,101,726,7,10,8,9,
342,208,-224,-72,721,758.4200439453125,18.071163177490234,72.17793273925781,-17.178576124509252,-5.447532447860067,43,-96,-15,7,8,5,5,
343,211,-210,-133,732,773.0543212890625,18.75445556640625,57.64894485473633,-15.762458966381494,-9.90673104039118,-105,-147,-562,5,6,8,8,
344,211,-202,-133,732,770.9195556640625,18.281471252441406,56.63481140136719,-15.190236826517015,-9.934441597665094,-12,-308,-730,10,12,7,9,
345,211,-190,-81,696,726.0006713867188,16.526647567749023,66.9073486328125,-15.17141759419036,-6.405835298661786,-109,-122,210,9,11,7,10,
346,211,-200,-90,739,770.8572998046875,16.527433395385742,65.76889038085938,-15.037511924695615,-6.704752928063599,-57,-131,209,8,6,7,7,
347,211,-231,-115,736,779.9243774414062,19.318653106689453,63.53081512451172,-17.228462997272253,-8.479190542739108,-84,-190,240,10,8,9,8,
348,218,-189,-151,757,794.7144165039062,17.720094680786133,51.37338638305664,-13.757986200348789,-10.953097123535752,-342,-231,892,13,9,9,9,
349,218,-258,-92,684,736.806640625,21.821949005126953,70.37107849121094,-20.497084539093052,-7.172853258308561,219,-301,1102,12,8,13,8,
350,218,-233,-84,726,767.0860595703125,18.83527946472168,70.17176055908203,-17.68278965381311,-6.286800019691783,90,-176,-169,15,9,13,9,
351,218,-222,-106,756,795.0194702148438,18.02315902709961,64.47317504882812,-16.214757395636784,-7.66206662766459,-246,56,-798,12,11,12,10,
352,218,-243,-147,777,827.27685546875,20.075944900512695,58.825069427490234,-17.08168576602373,-10.235320355958617,157,-14,-759,8,10,11,10,
353,219,-261,-159,739,799.7018432617188,22.465808868408203,58.6468391418457,-19.048696537110587,-11.468204427784261,78,-80,47,10,10,6,8,
354,219,-221,-86,738,775.1651611328125,17.8117733001709,68.73370361328125,-16.5648583559636,-6.3697417044526805,-80,15,1021,15,13,11,13,
355,219,-207,-144,763,803.5881958007812,18.285869598388672,55.17182159423828,-14.927383304454356,-10.322947692481684,29,-185,1413,11,11,11,9,
356,219,-212,-125,817,853.2631225585938,16.76189422607422,59.47188186645508,-14.386279486441824,-8.423943406575923,-93,-147,480,9,11,7,8,
357,219,-234,-146,759,807.5598754882812,19.968467712402344,58.03506851196289,-16.843695012267393,-10.415868239885377,25,-264,-701,13,12,13,11,
358,224,-255,-75,702,750.6357421875,20.736299514770508,73.6073226928711,-19.85933134685658,-5.73429354148863,175,0,-1091,10,12,10,9,
359,224,-211,-89,724,759.3536987304688,17.550092697143555,67.12660217285156,-16.13299463391929,-6.730818890226683,90,82,-458,11,9,9,6,
360,224,-252,-120,721,773.1397094726562,21.16034507751465,64.53325653076172,-19.022757363513353,-8.929049785041954,124,-295,540,10,11,10,13,
361,224,-246,-130,720,771.8911743164062,21.126527786254883,62.14207458496094,-18.584189881495547,-9.695823140980663,-51,-362,1349,13,9,14,8,
362,224,-228,-129,722,768.0553588867188,19.94025993347168,60.495758056640625,-17.268721333578508,-9.669035467134274,-44,130,998,11,9,9,7,
363,224,-188,-84,728,756.5606689453125,15.791206359863281,65.92113494873047,-14.388351815927816,-6.374623255319564,-196,77,448,13,11,9,9,
364,224,-222,-126,740,782.7898559570312,19.029890060424805,60.41862869262695,-16.475242265687182,-9.262781178722141,35,-314,154,13,12,11,12,
365,224,-200,-96,739,771.5808715820312,16.707517623901367,64.35558319091797,-15.023078431741057,-7.1472561180682606,-109,-228,-508,9,11,6,8,
366,224,-201,-102,696,731.5880126953125,17.942424774169922,63.090457916259766,-15.946806620318272,-8.014443821228033,-89,-236,-1289,11,17,7,11,
367,227,-190,-101,748,778.3347778320312,16.046724319458008,62.002349853515625,-14.129296858049122,-7.455967476002614,-163,-123,-504,5,14,10,11,
368,227,-237,-104,716,761.341552734375,19.871477127075195,66.30389404296875,-18.137145868791578,-7.851206562651722,-29,-271,1618,12,10,13,10,
369,227,-206,-103,763,797.0031127929688,16.79451560974121,63.431514739990234,-14.979192467637082,-7.425337365240527,-58,168,1264,10,6,6,7,
370,227,-204,-87,723,756.2499389648438,17.05100440979004,66.89984130859375,-15.649514755228807,-6.606008823968932,-35,-230,563,8,7,6,7,
371,227,-225,-72,703,741.6319580078125,18.572534561157227,72.25215148925781,-17.661026410550313,-5.571232236498875,19,-218,-720,10,8,7,9,
372,232,-225,-112,750,790.992431640625,18.524538040161133,63.53346633911133,-16.526142058037408,-8.14011076527642,-149,-131,-383,10,10,9,9,
373,232,-234,-121,773,816.6553955078125,18.816659927368164,62.65332794189453,-16.650599325518485,-8.520618765513133,-199,288,-305,6,7,9,8,
374,232,-234,-103,762,803.746826171875,18.545494079589844,66.23894500732422,-16.9260055177922,-7.362689521438684,-89,29,-944,7,7,7,7,
375,232,-243,-71,709,752.8419189453125,19.647863388061523,73.70950317382812,-18.830944192386006,-5.411567347189929,-41,-130,454,9,5,7,8,
376,232,-235,-124,714,761.837890625,20.41023063659668,62.17772674560547,-17.966722447398052,-9.36738158993299,121,24,1491,11,8,10,9,
377,234,-209,-121,717,756.5784912109375,18.612417221069336,59.927879333496094,-16.036141177555454,-9.202864137136574,-112,-112,798,13,19,9,7,
378,234,-231,-99,763,803.324951171875,18.228973388671875,66.7980728149414,-16.71162569829762,-7.079002219326068,64,127,24,12,12,12,8,
379,234,-265,-117,732,787.234375,21.5885009765625,66.17472839355469,-19.671168832986943,-8.547052057677378,63,-93,-656,13,13,8,7,
380,234,-225,-130,716,761.6961059570312,19.94513511657715,59.97809600830078,-17.181128009316314,-9.8268773834532,68,-176,-1257,8,11,6,7,
381,234,-224,-167,733,784.4450073242188,20.863550186157227,53.29042053222656,-16.59185881241109,-12.291730107977749,301,-180,-788,8,9,12,12,
382,237,-216,-108,720,759.4208374023438,18.539871215820312,63.431514739990234,-16.524617281564936,-8.175960305113533,-136,-331,1951,13,8,11,11,
383,237,-224,-90,715,754.6528930664062,18.654027938842773,68.10713958740234,-17.267016830548407,-6.849404285956409,-48,-169,1648,11,8,13,10,
384,237,-216,-56,756,788.2435913085938,16.442340850830078,75.46246337890625,-15.904035569210148,-4.073954807898101,-105,-36,34,10,10,7,7,
385,237,-208,-153,773,814.9859008789062,18.46915054321289,53.658931732177734,-14.786570767656308,-10.82053232166307,-232,-92,-125,9,7,9,9,
386,237,-228,-129,696,743.667236328125,20.623523712158203,60.495758056640625,-17.853771097454253,-9.989324028356501,64,-316,-420,7,7,10,10,
387,240,-210,-88,691,727.5472412109375,18.235549926757812,67.26067352294922,-16.77661498878545,-6.947183648716353,-7,-75,-84,9,5,8,7,
388,240,-188,-90,749,777.4606323242188,15.548659324645996,64.4150619506836,-13.993563561731591,-6.647548665439047,-223,-473,-84,7,7,7,10,
389,240,-220,-108,765,803.298828125,17.76152801513672,63.84972381591797,-15.894725738908948,-7.72656340739322,-33,80,392,12,8,6,7,
390,240,-206,-201,793,843.6148681640625,19.945968627929688,45.69987487792969,-14.133808662235564,-13.783889818131884,-117,30,190,10,10,11,11,
391,240,-204,-110,783,816.581298828125,16.486526489257812,61.66226577758789,-14.46698145116081,-7.74173301152574,-85,-249,950,8,10,14,12,
392,242,-231,-83,733,773.0064697265625,18.51197624206543,70.23302459716797,-17.387536160712447,-6.16390079864891,94,-215,1213,6,6,9,9,
393,242,-246,-94,676,725.4846801757812,21.282245635986328,69.08418273925781,-19.821055888844747,-7.444661496295131,104,-50,-593,15,12,9,10,
394,242,-205,-112,743,778.8568725585938,17.451066970825195,61.346893310546875,-15.260395695196713,-8.267824591514744,-248,-1,-626,8,5,6,7,
395,242,-210,-119,792,827.96435546875,16.947181701660156,60.457698822021484,-14.692664365056679,-8.263511125634391,-197,255,-651,8,8,11,9,
396,242,-256,-137,740,794.9244995117188,21.421491622924805,61.84276580810547,-18.786531183847735,-9.924097664207393,2,103,-866,9,5,7,5,
397,247,-249,-103,732,780.0217895507812,20.20751190185547,67.5240249633789,-18.615872182736933,-7.587930912205954,218,-39,203,8,9,12,12,
398,247,-224,-120,737,779.5800170898438,19.022130966186523,61.817928314208984,-16.69842558614992,-8.854689127946658,-4,-123,1338,9,10,10,9,
399,247,-198,-137,711,750.662353515625,18.706253051757812,55.316219329833984,-15.29370358067019,-10.515731305228348,16,-500,244,11,9,12,12,
400,247,-221,-78,700,738.1903686523438,18.508499145507812,70.5567398071289,-17.42041479732829,-6.0654124101747735,-184,-118,-203,11,9,13,10,
401,247,-197,-83,741,771.2191772460938,16.090131759643555,67.15001678466797,-14.79964160531322,-6.178241223121534,-251,71,-461,9,9,9,7,
402,247,-231,-123,727,772.6700439453125,19.79582405090332,61.96266555786133,-17.395348193440665,-9.15978306795404,19,-218,622,8,8,7,7,
403,247,-219,-144,707,754.0198974609375,20.33884048461914,56.67007064819336,-16.88449552768809,-11.009770890298284,-35,-331,-324,8,7,10,8,
404,247,-211,-99,699,736.8330688476562,18.438058853149414,64.86089324951172,-16.640198180100285,-7.721543295617382,-211,-309,1258,11,7,9,11,
405,247,-215,-92,744,779.8878173828125,17.44702911376953,66.83023834228516,-16.00258215662583,-6.774710979555763,-143,-182,414,15,8,10,12,
406,254,-249,-70,710,755.6460571289062,20.01456642150879,74.29490661621094,-19.239604156457748,-5.315270188730805,129,-41,137,8,9,9,8,
407,254,-231,-154,755,804.426513671875,20.187349319458008,56.30628204345703,-16.68807134149306,-11.036875710471218,-42,-179,7,7,7,6,6,
408,254,-219,-87,720,757.5816650390625,18.120580673217773,68.33074951171875,-16.802749756304475,-6.594344813116835,-36,87,-1088,12,9,7,9,
409,254,-255,-53,726,771.3040771484375,19.73317527770996,78.25563049316406,-19.305737642391872,-3.9401724527259825,93,144,-658,10,11,11,13,
410,254,-248,-81,761,804.4786987304688,18.921096801757812,71.90911102294922,-17.95525413378166,-5.778693110630266,-51,-262,905,8,8,10,10,
411,254,-216,-125,726,767.6959228515625,18.96825408935547,59.9383430480957,-16.34147457967505,-9.370901069515849,-153,-85,-168,12,8,9,6,
412,254,-198,-153,772,811.5399169921875,17.956775665283203,52.30199432373047,-14.121599073315208,-10.867036685760873,-212,-268,134,7,8,8,8,
413,254,-229,-135,734,780.6548461914062,19.906660079956055,59.476253509521484,-17.0582308617875,-9.958320411862088,-4,-138,279,8,8,12,10,
414,254,-216,-84,684,722.1966552734375,18.715726852416992,68.7462158203125,-17.40280531760489,-6.679294064853805,-72,166,125,18,14,14,15,
415,254,-218,-93,679,719.1759033203125,19.239713668823242,66.89330291748047,-17.645378206789182,-7.429991811232256,-118,140,363,22,23,24,23,
416,256,-195,-84,730,760.2506103515625,16.21506690979004,66.6917724609375,-14.862151420242894,-6.34355581155288,-203,-251,-98,22,27,22,25,
417,256,-217,-83,723,759.4122924804688,17.812360763549805,69.0654525756836,-16.60352295536387,-6.274679721126331,-71,-379,-38,13,14,16,14,
418,256,-231,-141,753,800.1568603515625,19.766658782958984,58.596961975097656,-16.77974762528854,-10.149397463817358,50,-602,-423,16,11,15,16,
419,256,-252,-114,679,733.171875,22.16121482849121,65.6555404663086,-20.103193615528735,-8.945144937769344,123,-133,5,17,13,17,14,
420,256,-225,-79,692,731.935791015625,19.012056350708008,70.65003204345703,-17.90285378740528,-6.196173730154752,188,-201,146,12,11,10,12,
421,260,-198,-126,663,703.3128662109375,19.491058349609375,57.52519226074219,-16.35122923641124,-10.320377713473166,-101,-946,873,9,11,13,10,
422,260,-246,-37,735,775.9574584960938,18.696718215942383,81.44355010986328,-18.483266665828733,-2.7330724699613356,21,29,-41,7,7,9,9,
423,260,-216,-157,734,781.0640258789062,19.989370346069336,53.98468780517578,-16.054156960500016,-11.595901617644216,-56,-188,351,9,8,12,9,
424,260,-231,-169,766,817.7273559570312,20.486431121826172,53.807003021240234,-16.408886971739125,-11.92729759301825,10,81,575,11,9,11,9,
425,260,-216,-82,682,720.0722045898438,18.712736129760742,69.20848846435547,-17.455795974360353,-6.538883283670608,-198,83,-232,12,14,12,12,
426,262,-207,-103,702,739.0953979492188,18.22763442993164,63.54233169555664,-16.264508001979205,-8.01078776328407,-164,-492,358,8,7,11,14,
427,262,-234,-160,790,839.3187866210938,19.737157821655273,55.633544921875,-16.188450628079917,-10.989598630891859,-175,-443,315,12,10,12,17,
428,262,-227,-123,726,770.5413818359375,19.574464797973633,61.54545211791992,-17.133437468632344,-9.185306372140296,-305,-190,280,10,10,12,11,
429,262,-214,-130,801,839.2240600585938,17.357040405273438,58.71872329711914,-14.773434630353691,-8.911286545646309,-256,99,222,11,11,13,12,
430,262,-228,-106,732,773.9793090820312,18.95507049560547,65.06230926513672,-17.13244465136586,-7.871657975178008,-15,-113,-493,12,11,13,14,
431,265,-225,-124,738,781.4378051757812,19.191524505615234,61.13685607910156,-16.73411617862399,-9.1303949470255,-128,-306,-8,13,14,16,16,
432,265,-228,-144,746,793.2439575195312,19.87200355529785,57.72074890136719,-16.70399676483064,-10.459068542774682,133,-49,-194,27,27,20,21,
433,265,-214,-167,748,795.7317504882812,19.943811416625977,52.028682708740234,-15.600894371548032,-12.114717822027925,-179,-558,-535,29,19,25,18,
434,265,-220,-100,769,806.0775146484375,17.443368911743164,65.55267333984375,-15.838490924511829,-7.1263334150979665,58,-46,-517,12,17,11,14,
435,265,-240,-87,733,776.1817016601562,19.199626922607422,70.07118225097656,-18.011384367743943,-6.435645215966473,-16,30,626,9,9,9,10,
436,266,-240,-159,744,797.7575073242188,21.151901245117188,56.47187805175781,-17.508261199847396,-11.49653612339664,6,-220,596,11,9,12,11,
437,266,-233,-88,696,739.2218627929688,19.687725067138672,69.30606842041016,-18.372664318776877,-6.836937755435974,16,114,333,12,9,8,10,
438,266,-203,-131,795,830.9000854492188,16.90176010131836,57.161407470703125,-14.141259169089887,-9.071120371357345,-138,143,30,7,7,9,6,
439,266,-210,-71,720,753.3531494140625,17.110700607299805,71.316650390625,-16.185836997452228,-5.407884135178058,-119,-21,-454,9,5,6,6,
440,266,-237,-105,690,737.0847778320312,20.58806610107422,66.10147857666016,-18.75589876440532,-8.189820399323969,146,37,-1157,7,6,9,7,
441,269,-231,-166,735,788.1256103515625,21.155364990234375,54.29470443725586,-17.043668821068486,-12.159058713366042,84,9,447,13,12,14,14,
442,269,-228,-115,729,772.4312133789062,19.302696228027344,63.23080825805664,-17.167846089568858,-8.562059433757584,-127,-490,675,11,8,10,12,
443,269,-229,-60,696,735.1577758789062,18.782556533813477,75.31494903564453,-18.149514853342264,-4.681409509518389,29,-569,414,10,8,10,12,
444,269,-222,-61,753,787.40966796875,16.99874496459961,74.63263702392578,-16.37585089572812,-4.443110148575453,-50,141,534,9,7,10,8,
445,273,-214,-160,782,826.3897094726562,18.862600326538086,53.212127685546875,-15.008225749453525,-11.163724680271566,-149,-31,-6,12,9,12,7,
446,273,-222,-113,717,759.0401611328125,19.156465530395508,63.020050048828125,-17.00616699138832,-8.561575937229254,-129,-164,136,8,7,7,6,
447,273,-202,-73,684,716.9302368164062,17.4309024810791,70.12760925292969,-16.36508601191632,-5.844157411134554,-174,-376,-321,11,9,10,8,
448,273,-227,-76,736,773.9515380859375,18.015037536621094,71.48616027832031,-17.055626721318102,-5.6353759656292866,34,-50,-209,6,9,8,8,
449,273,-231,-154,793,840.1940307617188,19.29294204711914,56.30628204345703,-15.958229687298605,-10.561510044894224,-183,172,398,7,8,10,9,
450,282,-205,-151,775,815.7517700195312,18.1846981048584,53.6214599609375,-14.55456693428487,-10.66727298119996,-305,-88,646,8,8,10,11,
451,282,-223,-183,813,862.6627197265625,19.534042358398438,50.62293243408203,-14.981191708247826,-12.247432867434293,63,91,825,15,6,9,8,
452,282,-194,-75,714,743.6780395507812,16.23900604248047,68.86032104492188,-15.121428910982324,-5.788124883500668,-256,-459,-262,12,11,8,7,
453,282,-204,-107,679,717.0118408203125,18.737979888916016,62.31907653808594,-16.52980765669482,-8.582332512781525,-96,-346,179,11,9,10,12,
454,282,-223,-148,750,796.32470703125,19.63726234436035,56.4250373840332,-16.26238488063797,-10.710917183026359,218,-257,-1062,13,10,11,9,
455,280,-219,-120,771,810.4332275390625,17.944671630859375,61.27616882324219,-15.677706308045208,-8.515036247943332,3,-145,-474,10,7,9,9,
456,280,-230,-66,736,773.919921875,18.007831573486328,73.9856948852539,-17.288808786428632,-4.892134441654144,-117,-12,354,9,5,7,6,
457,280,-224,-121,736,778.7894287109375,19.079069137573242,61.61954879760742,-16.71587421914295,-8.938217226365696,-127,-338,145,12,7,10,9,
458,280,-217,-111,711,751.618896484375,18.920400619506836,62.905860900878906,-16.78074946370064,-8.492573766487903,-8,-36,1532,10,7,8,10,
459,280,-227,-67,720,757.9036865234375,18.194814682006836,73.55268096923828,-17.428196086911246,-5.0716666626864955,-159,-261,805,8,6,8,7,
460,281,-219,-45,757,789.32568359375,16.4520263671875,78.3855209350586,-16.108192048838504,-3.268243931566502,-100,74,-467,6,8,8,6,
461,281,-234,-146,777,824.5004272460938,19.541240692138672,58.03506851196289,-16.48762286477586,-10.199544657672634,10,-203,-487,8,9,7,5,
462,281,-282,-132,705,770.6964111328125,23.826799392700195,64.91300964355469,-21.463154339161665,-9.86188061193302,454,-9,-1244,10,7,7,5,
463,281,-212,-102,690,729.0048217773438,18.825157165527344,64.3028793334961,-16.906300817082606,-8.04303034789657,61,-355,1066,13,6,10,13,
464,281,-235,-99,678,724.3687133789062,20.609691619873047,67.15211486816406,-18.93046544566671,-7.855241400862311,-52,-427,997,17,11,15,16,
465,281,-253,-69,716,762.512939453125,20.11357307434082,74.74177551269531,-19.377921489212593,-5.191812372760131,359,-88,227,12,13,10,6,
466,281,-204,-118,747,783.293701171875,17.50769805908203,59.95002365112305,-15.096095427319558,-8.664360552886313,-62,-10,714,9,13,7,7,
467,281,-207,-129,732,771.56591796875,18.426193237304688,58.06572341918945,-15.562273094324517,-9.624622109717436,-281,-239,-1017,12,7,10,6,
468,281,-226,-96,710,751.26025390625,19.0751895904541,66.98191833496094,-17.507331436964243,-7.341630447709349,65,-314,-860,10,7,7,6,
469,281,-223,-89,662,704.1973876953125,19.933387756347656,68.23960876464844,-18.461814425018407,-7.260745606753762,27,1,-140,12,7,11,9,
470,288,-210,-106,742,778.3958129882812,17.588029861450195,63.213653564453125,-15.651511175270967,-7.826715094280976,-125,-77,445,9,6,8,10,
471,288,-225,-170,781,830.3529663085938,19.851457595825195,52.92317581176758,-15.721942936221776,-11.813823902803131,-234,-221,595,12,8,11,11,
472,288,-225,-122,744,786.7941284179688,18.98189353942871,61.52897644042969,-16.616875587065564,-8.920254141722838,-125,-151,634,8,5,7,6,
473,288,-244,-75,720,763.91162109375,19.51921272277832,72.91061401367188,-18.627167352967938,-5.634312695131318,45,15,879,11,10,12,8,
474,288,-226,-132,719,765.1542358398438,20.000080108642578,59.708499908447266,-17.179442898842584,-9.934034501292446,18,-179,-473,12,8,10,10,
475,290,-223,-111,716,758.0936889648438,19.180835723876953,63.53437805175781,-17.107108381907626,-8.41951124762442,154,-551,-692,10,9,12,9,
476,290,-226,-89,678,720.1951293945312,19.707950592041016,68.5019302368164,-18.288618491055384,-7.0986227148789744,196,-76,-822,6,10,8,8,
477,290,-206,-73,741,772.55810546875,16.430831909179688,70.48402404785156,-15.464817979558136,-5.422040393529172,-101,-314,205,6,6,9,8,
478,290,-213,-101,705,743.3673095703125,18.48642349243164,64.6272964477539,-16.65056361148992,-7.808828056260802,-35,14,1117,22,12,13,12,
479,290,-225,-97,713,753.925048828125,18.96289825439453,66.67524719238281,-17.363818848729203,-7.392165817703588,37,-61,25,12,8,10,9,
480,294,-220,-96,724,762.7529296875,18.340192794799805,66.42195129394531,-16.763921289107635,-7.230416255260572,-30,-227,756,8,7,7,8,
481,294,-224,-75,732,769.171630859375,17.8831844329834,71.48515319824219,-16.93115281916445,-5.595658991121872,-63,-89,434,11,6,10,8,
482,294,-199,-81,745,775.3624877929688,16.08505630493164,67.84864044189453,-14.87162326463329,-5.996474344709882,-167,-147,-729,10,8,7,8,
483,294,-227,-138,734,780.5952758789062,19.89458465576172,58.69977569580078,-16.906078699535744,-10.18273447623308,-43,-24,-341,8,4,5,7,
484,298,-240,-87,738,780.9052734375,19.078960418701172,70.07118225097656,-17.89873592858236,-6.396554041496887,-25,-39,-468,7,6,7,8,
485,298,-220,-93,702,741.520751953125,18.788320541381836,67.08155822753906,-17.258760304254643,-7.204891686951868,-16,-179,1353,15,6,10,13,
486,298,-234,-156,775,824.4495239257812,19.942819595336914,56.30628204345703,-16.48867069703317,-10.907102405431118,114,-283,1035,9,8,12,8,
487,298,-222,-123,771,811.6982421875,18.218351364135742,61.007667541503906,-15.872683286015798,-8.715843282101213,140,-73,-7,10,7,9,10,
488,298,-240,-143,769,818.1748046875,19.963674545288086,59.20854187011719,-17.057774463902113,-10.065813678465409,-23,-66,-621,14,12,16,15,
489,299,-242,-127,731,780.4191284179688,20.497297286987305,62.306331634521484,-18.06464169869589,-9.36556920778861,9,-228,-709,16,20,19,15,
490,299,-235,-80,708,750.25927734375,19.319950103759766,71.19690704345703,-18.25369463452839,-6.121074608553274,80,-92,-230,20,25,24,20,
491,299,-233,-141,723,772.5924072265625,20.63848304748535,58.816192626953125,-17.55264978262987,-10.51555420011803,80,-60,0,21,26,21,23,
492,299,-228,-135,741,786.9498291015625,19.67416763305664,59.36644744873047,-16.84156644770596,-9.877859961938237,73,-278,411,23,24,23,22,
493,299,-234,-104,743,785.888671875,19.01409912109375,66.03414916992188,-17.3226388336494,-7.604501506086707,-42,-50,540,17,16,19,18,
494,304,-240,-69,770,809.48193359375,17.966480255126953,73.95692443847656,-17.246661369332223,-4.889808897092389,49,344,401,11,11,10,12,
495,304,-231,-84,709,750.3985595703125,19.118501663208008,70.0136489868164,-17.928890862661664,-6.427189769883392,44,-155,249,12,8,9,10,
496,304,-218,-90,707,745.3005981445312,18.446016311645508,67.5636978149414,-17.007652352041944,-6.935772614834709,55,101,-373,7,5,8,8,
497,304,-208,-69,738,769.8499755859375,16.536401748657227,71.64453125,-15.675127438424825,-5.142198016419038,-10,-212,-529,9,9,7,8,
498,304,-226,-66,714,751.8164672851562,18.24774932861328,73.71719360351562,-17.493961296182427,-5.036329561846896,24,-164,-580,8,7,6,9,
499,308,-216,-96,783,817.900390625,16.795888900756836,66.03414916992188,-15.312937856572177,-6.74055604776512,-124,34,380,24,22,23,28,
500,308,-202,-121,744,780.3723754882812,17.55985450744629,59.07440948486328,-15.001883131365155,-8.91993894671599,5,-45,1336,23,25,29,31,
501,308,-218,-108,727,766.6270141601562,18.5003719329834,63.64216232299805,-16.520747619512704,-8.098588880939623,10,-477,-73,19,21,26,26,
502,308,-228,-107,729,771.28076171875,19.057205200195312,64.85601806640625,-17.194251168646666,-7.974380077206498,72,-185,367,20,16,18,21,
503,308,-217,-76,765,798.8053588867188,16.726205825805664,70.6949691772461,-15.762812289285609,-5.459497201282862,-143,31,40,19,20,19,21,
504,307,-237,-106,750,793.66552734375,19.09203338623047,65.89970397949219,-17.37440272304942,-7.67521637572245,-178,-68,-577,16,24,19,19,
505,307,-225,-132,735,779.9192504882812,19.538427352905273,59.59772491455078,-16.767660680232158,-9.744116275751603,24,-249,-743,14,19,20,21,
506,307,-213,-109,717,755.8696899414062,18.45223045349121,62.89603805541992,-16.367341352241663,-8.29123068143769,-57,-162,479,10,13,14,12,
507,307,-219,-75,712,748.6854858398438,18.008331298828125,71.09221649169922,-17.008446032298856,-5.7492808036128435,-26,10,1581,14,8,13,15,
508,307,-234,-84,750,790.1341552734375,18.33791160583496,70.24993133544922,-17.226643351416314,-6.1027075376037265,49,106,221,12,17,13,9,
509,312,-247,-125,753,802.2736206054688,20.183086395263672,63.15381622314453,-17.931214830017957,-8.963613464247828,207,91,36,9,12,9,12,
510,312,-240,-138,736,786.3460083007812,20.61175537109375,60.09756088256836,-17.77074821966802,-10.107481038157369,76,-264,218,9,9,10,10,
511,312,-222,-72,700,737.8807373046875,18.436555862426758,72.02767944335938,-17.509361557440513,-5.599645534467445,-42,-104,-862,9,9,12,8,
512,312,-240,-78,696,740.3377685546875,19.927650451660156,71.9926528930664,-18.915682446237874,-6.047753493595253,64,-268,672,11,12,7,5,
513,312,-228,-124,717,762.5280151367188,19.897064208984375,61.456520080566406,-17.397874998044713,-9.358827430008368,22,-492,-701,14,10,12,9,
514,311,-225,-79,701,740.4505615234375,18.785158157348633,70.65003204345703,-17.690136046778285,-6.124647105309833,-37,-365,990,12,10,12,10,
515,311,-248,-53,712,755.8154296875,19.60279655456543,77.93379211425781,-19.154853929158055,-4.021048383250533,105,-236,706,11,8,10,12,
516,311,-222,-68,726,762.2230834960938,17.732582092285156,72.96668243408203,-16.933005514380977,-5.118317619662831,77,-237,304,9,9,10,9,
517,311,-231,-141,702,752.3602905273438,21.080442428588867,58.596961975097656,-17.880561101574862,-10.80168550570741,89,-425,63,11,7,10,9,
518,311,-204,-114,723,759.82958984375,17.9100341796875,60.79899978637695,-15.573912577578241,-8.628876157703656,-1,-495,-290,10,12,14,13,
519,316,-195,-66,702,731.5634155273438,16.34197425842285,71.29780578613281,-15.459218830344414,-5.176133938940546,-63,-364,901,8,7,11,12,
520,316,-238,-27,726,764.4926147460938,18.256977081298828,83.52488708496094,-18.138651980688405,-2.0239669318851874,99,-170,313,10,9,10,9,
521,316,-210,-131,785,823.0953979492188,17.497861862182617,58.040096282958984,-14.78155306995453,-9.157870811198347,-179,74,215,11,10,11,8,
522,316,-220,-167,762,810.5140380859375,19.92215919494629,52.794437408447266,-15.749537707856907,-11.890508398011978,-49,84,-116,8,9,11,10,
523,316,-222,-167,785,832.7052001953125,19.486064910888672,53.04385757446289,-15.462102850525778,-11.569191225434684,-2,-84,-185,12,11,11,10,
524,316,-229,-27,710,746.5051879882812,17.990079879760742,83.27279663085938,-17.86424783562152,-2.0727565587810246,14,-542,891,11,9,9,9,
525,316,-219,-76,752,786.918701171875,17.130352020263672,70.85836791992188,-16.158809966826702,-5.542221062457937,-185,-73,-62,15,11,16,12,
526,316,-237,-106,777,819.2276611328125,18.474287033081055,65.89970397949219,-16.81586496983588,-7.434353339279897,-36,394,686,11,8,9,12,
527,316,-184,-215,828,875.0228271484375,18.86680793762207,40.55325698852539,-12.138774430360506,-14.223670334450015,-150,-259,-537,16,12,11,11,
528,322,-221,-84,726,763.5266723632812,18.035972595214844,69.18540954589844,-16.824811745286688,-6.316226433647144,-21,-519,-116,10,11,12,9,
529,322,-214,-70,733,766.8018188476562,17.073387145996094,71.88374328613281,-16.205378129069125,-5.237723916465107,-26,-108,291,19,14,16,13,
530,322,-237,-107,731,775.873046875,19.579641342163086,65.69855499267578,-17.78598158785858,-7.926876245312301,93,155,146,9,7,9,9,
531,322,-230,-135,730,777.1904296875,20.06682586669922,59.58537673950195,-17.213777947320715,-10.003166111921319,-6,-133,-114,8,9,7,8,
532,322,-227,-93,726,766.3250122070312,18.667770385742188,67.71818542480469,-17.23064645998254,-6.970508031054216,-26,-107,144,7,8,6,9,
533,325,-223,-101,729,769.0065307617188,18.56049919128418,65.6301498413086,-16.85703071284343,-7.546933892986463,39,-230,452,9,11,10,10,
534,325,-237,-125,706,755.1357421875,20.780916213989258,62.18819046020508,-18.2914548509729,-9.52820768363666,6,-207,458,9,8,6,7,
535,325,-224,-99,719,759.5643310546875,18.8075008392334,66.15292358398438,-17.151894187949512,-7.489117009740336,-30,-325,-156,7,8,7,5,
536,325,-213,-82,745,779.1777954101562,17.030868530273438,68.9411849975586,-15.864607739220652,-6.040944711936689,-106,-580,-502,8,8,6,7,
537,325,-227,-90,743,782.0984497070312,18.191242218017578,68.36957550048828,-16.872611573241144,-6.60795241137009,-86,-439,24,11,8,9,9,
538,330,-215,-117,741,780.3812866210938,18.277742385864258,61.44209289550781,-15.992190949817982,-8.622679068072335,-67,-230,118,6,6,8,7,
539,330,-211,-120,747,785.4489135742188,17.99936294555664,60.36869812011719,-15.583127996024482,-8.788000803430934,-68,-147,498,5,5,7,7,
540,330,-236,-63,734,773.5767822265625,18.40455436706543,75.05037689208984,-17.762759410402683,-4.671335005814826,45,60,534,7,8,9,9,
541,330,-222,-81,764,799.7130737304688,17.185392379760742,69.95150756835938,-16.116991251901855,-5.813247720583327,-16,-135,208,8,6,7,9,
542,330,-193,-168,774,815.19873046875,18.29127311706543,48.95765686035156,-13.694924470853827,-11.893004470357114,-80,150,206,6,7,9,7,
543,329,-198,-142,782,819.0799560546875,17.303836822509766,54.349266052246094,-13.988942707877042,-9.983539493084464,25,-521,-901,7,10,9,7,
544,329,-222,-126,756,797.9323120117188,18.655229568481445,60.41862869262695,-16.15394269028439,-9.08549727885733,60,-155,-258,7,7,7,7,
545,329,-218,-77,741,776.2306518554688,17.326274871826172,70.5429916381836,-16.310605503232512,-5.692950570379655,-111,35,250,8,6,6,7,
546,329,-213,-99,778,812.6832275390625,16.79722785949707,65.06813049316406,-15.194393373616391,-6.997075700578017,-135,-4,673,7,9,8,8,
547,329,-245,-98,731,777.1679077148438,19.84627342224121,68.19529724121094,-18.3757364606837,-7.24421866960749,34,-493,792,6,6,10,11,
548,337,-227,-133,743,788.2048950195312,19.496755599975586,59.63029098510742,-16.738027694473672,-9.714442805527815,-3,-74,29,7,8,8,6,
549,337,-231,-100,726,768.3989868164062,19.120174407958984,66.58885192871094,-17.495150242861122,-7.47772427447006,-13,-54,128,8,5,6,7,
550,337,-213,-97,709,746.6317749023438,18.266382217407227,65.51214599609375,-16.57565740520128,-7.464783734724746,-56,-172,-533,9,7,5,5,
551,337,-202,-124,727,764.6626586914062,18.05535888671875,58.452266693115234,-15.317567053031437,-9.332467388675017,-5,-237,-88,7,5,7,7,
552,337,-235,-83,720,761.9146728515625,19.09111785888672,70.54398345947266,-17.964850030877376,-6.253988887216668,40,-76,227,10,6,10,8,
553,338,-221,-123,713,756.5308837890625,19.529069900512695,60.89787673950195,-16.98509378022629,-9.35692661852566,-47,-174,437,9,10,11,7,
554,338,-216,-70,695,731.1504516601562,18.090316772460938,72.04065704345703,-17.183013670594633,-5.493885645357979,9,122,1063,8,6,10,9,
555,338,-208,-125,717,756.953125,18.69642448425293,58.992183685302734,-15.949252490582946,-9.505119140893038,-194,-232,1032,9,9,11,7,
556,338,-240,-99,708,754.0988159179688,20.13545799255371,67.58053588867188,-18.557771002145067,-7.5437112264964705,25,-344,-20,7,6,8,8,
557,335,-219,-93,726,763.9934692382812,18.143156051635742,66.98780059814453,-16.657602173883497,-6.9918865590414825,-45,-119,-717,6,12,6,7,
558,335,-235,-57,738,776.6067504882812,18.139842987060547,76.36297607421875,-17.613739854387894,-4.209078640281046,64,-13,-929,8,9,7,7,
559,335,-192,-154,778,816.0048828125,17.55328369140625,51.26367950439453,-13.608877305464064,-10.878348460273955,-294,67,463,8,8,5,7,
560,335,-213,-152,770,813.2484130859375,18.767488479614258,54.48406982421875,-15.183578696969303,-10.77220424333627,-24,-48,1214,9,8,8,11,
561,335,-205,-65,717,748.5579223632812,16.694013595581055,72.40440368652344,-15.894082813031917,-4.981473770821193,-98,-25,1060,8,9,12,9,
562,347,-216,-84,726,762.094482421875,17.702335357666016,68.7462158203125,-16.46499054137704,-6.328144969036554,-224,32,375,8,7,9,9,
563,347,-234,-80,759,798.271240234375,18.044525146484375,71.12223815917969,-17.04564398597391,-5.751641144540792,1,67,-441,10,10,9,9,
564,347,-213,-144,754,796.6310424804688,18.826932907104492,55.93543243408203,-15.508181649718203,-10.414102059255146,-97,124,-123,7,8,8,8,
565,347,-233,-68,726,765.4992065429688,18.483964920043945,73.72721099853516,-17.720659561738014,-5.096354595945264,-97,201,-1159,8,8,10,7,
566,347,-220,-95,721,759.7802124023438,18.382888793945312,66.6410903930664,-16.83146098234945,-7.182843784086387,-44,-135,155,7,10,12,12,
567,349,-225,-146,704,753.36376953125,20.85438346862793,57.01728439331055,-17.37716691363652,-11.1744839715285,35,-236,883,13,15,12,13,
568,349,-225,-120,714,758.1694946289062,19.651750564575195,61.924034118652344,-17.263549265008425,-9.106840430957751,-48,-140,786,16,14,16,17,
569,349,-249,-107,707,757.1651000976562,20.971450805664062,66.7425537109375,-19.199491190710248,-8.12403947799769,27,-259,892,15,23,21,18,
570,349,-207,-84,748,780.6465454101562,16.626379013061523,67.9095230102539,-15.376746976041089,-6.177164149013173,-233,-131,-15,14,16,16,13,
571,349,-222,-75,723,760.0250244140625,17.95555305480957,71.32988739013672,-16.98346155691811,-5.663219613201912,-5,-4,-845,10,10,9,6,
572,345,-216,-129,731,773.0834350585938,18.989877700805664,59.14984130859375,-16.224435759403107,-9.605550611602633,-49,-160,-808,7,7,7,8,
573,345,-206,-124,731,769.5277709960938,18.205005645751953,58.95094299316406,-15.527249340339907,-9.272943375999494,-55,-274,255,10,9,10,12,
574,345,-228,-83,700,740.859619140625,19.115509033203125,69.99347686767578,-17.92372357930424,-6.432465791572139,98,-26,1216,13,11,10,9,
575,345,-247,-58,734,776.6138305664062,19.06639862060547,76.78229522705078,-18.544880856251005,-4.283019654558133,330,-98,809,12,9,10,10,
576,345,-222,-123,768,808.8491821289062,18.28479766845703,61.007667541503906,-15.93007594217218,-8.746783697408402,249,-188,543,13,11,14,16,
577,351,-216,-148,756,800.0599975585938,19.10137176513672,55.57795715332031,-15.66306199789949,-10.660323547285866,43,-80,-170,11,10,10,12,
578,351,-218,-84,727,763.61572265625,17.81283187866211,68.92400360107422,-16.587775789992282,-6.315486817894616,113,-171,-845,12,11,14,15,
579,351,-207,-84,754,786.3974609375,16.501279830932617,67.9095230102539,-15.261548127116752,-6.131816403637949,-42,-253,-624,12,14,13,10,
580,351,-221,-81,743,779.3914184570312,17.575639724731445,69.8680648803711,-16.472467520636553,-5.965363786638631,-131,247,-209,10,10,10,11,
581,351,-188,-176,793,833.7679443359375,17.989076614379883,46.8842658996582,-13.031246690093136,-12.186231238565545,-307,17,810,9,14,12,11,
582,355,-246,-132,735,786.2346801757812,20.79639434814453,61.77915954589844,-18.233100234979712,-9.665092057921502,229,92,1710,13,21,18,18,
583,355,-197,-69,732,761.1793212890625,15.913640975952148,70.69377899169922,-14.999399019973936,-5.200933583790307,69,-9,1346,11,15,16,12,
584,355,-198,-105,706,740.71923828125,17.609798431396484,62.05937194824219,-15.504125312261067,-8.149361972948547,-173,-135,507,15,19,20,19,
585,355,-209,-99,742,777.2039794921875,17.308727264404297,64.65042114257812,-15.59957518138322,-7.318200739040833,55,-322,-730,17,18,16,17,
586,355,-193,-68,731,759.1007690429688,15.636341094970703,70.58780670166016,-14.72904142962025,-5.139426456392887,-74,-212,-1532,13,17,11,14,
587,363,-219,-129,726,769.2060546875,19.292827606201172,59.49660873413086,-16.54146306409022,-9.654431815594542,32,-160,-441,8,13,10,10,
588,363,-155,-131,727,754.794677734375,15.594976425170898,49.7929573059082,-11.850214469135121,-9.994703123618425,-585,-84,1732,10,12,11,9,
589,363,-241,-96,726,770.9558715820312,19.66090965270996,68.27732849121094,-18.21592490856784,-7.15308003232263,-36,-187,1601,9,13,11,6,
590,363,-209,-112,707,745.7036743164062,18.53863525390625,61.81032180786133,-16.276449919933505,-8.638152154544542,9,-367,446,12,10,10,8,
591,363,-225,-111,720,762.4605102539062,19.209257125854492,63.737911224365234,-17.163369464124255,-8.370943227687013,-173,-253,-66,12,10,11,8,
592,355,-225,-121,747,789.4776611328125,18.878461837768555,61.72612762451172,-16.558762461657082,-8.816237494290617,-418,-225,-491,10,8,11,9,
593,355,-232,-140,756,803.093994140625,19.716829299926758,58.887611389160156,-16.791079112995067,-10.03942572617947,-129,-49,-42,7,9,11,9,
594,355,-212,-140,782,822.2335205078125,17.99574851989746,56.556480407714844,-14.941595154645224,-9.803397190992815,-230,147,-781,10,15,13,9,
595,355,-239,-116,689,738.4429321289062,21.08351707458496,64.1067123413086,-18.88404655258673,-9.037872122811697,-20,-191,45,9,14,8,8,
596,355,-224,-89,750,787.77978515625,17.81410789489746,68.32772064208984,-16.519605638014195,-6.4868822028820174,-77,-169,1114,10,13,9,9,
597,364,-213,-104,756,792.2884521484375,17.40597915649414,63.972042083740234,-15.59533968018367,-7.542716581711605,-18,-69,998,9,8,9,10,
598,364,-229,-120,748,791.4196166992188,19.064937591552734,62.34120559692383,-16.819252381574543,-8.72118279542859,29,-86,403,8,8,10,11,
599,364,-239,-132,743,791.576904296875,20.174745559692383,61.084564208984375,-17.573498413532633,-9.599244705827742,-6,-52,-394,7,5,7,7,
600,364,-262,-62,732,779.943603515625,20.191904067993164,76.68331909179688,-19.62859766751513,-4.559419865148783,259,-85,-1070,11,13,9,9,
601,371,-234,-125,729,775.7718505859375,19.995147705078125,61.885921478271484,-17.555835448944876,-9.272482407329155,104,-42,-952,8,9,11,10,
602,371,-202,-140,744,783.543212890625,18.278287887573242,55.27168273925781,-14.939755184205081,-10.292622479104395,-160,-358,879,10,14,12,10,
603,371,-217,-153,789,832.4776000976562,18.597028732299805,54.8098258972168,-15.109682753409887,-10.590520500403917,-125,213,484,12,10,10,10,
604,371,-211,-85,720,755.0801391601562,17.53132438659668,68.05496978759766,-16.226817331964703,-6.46353422980713,2,17,-195,10,11,13,7,
605,371,-239,-100,717,762.3712768554688,19.8644962310791,67.29175567626953,-18.270014583696636,-7.537188902460627,55,-139,608,11,11,12,9,
606,371,-220,-96,723,761.8037719726562,18.363859176635742,66.42195129394531,-16.785425744848443,-7.239472819697627,-19,-203,620,13,9,11,8,
607,371,-189,-93,716,746.3417358398438,16.39131736755371,63.79644775390625,-14.669037513920669,-7.158107076107626,-170,-321,-867,8,11,8,12,
608,371,-205,-69,717,748.9158935546875,16.78506851196289,71.39431762695312,-15.886285515301678,-5.286339158686865,-193,-79,-495,9,9,9,9,
609,371,-192,-94,768,797.1975708007812,15.552538871765137,63.910980224609375,-13.936340255302884,-6.771674060046689,-370,75,486,10,9,11,10,
610,371,-199,-161,691,736.8873901367188,20.32448959350586,51.02177429199219,-15.667530052738892,-12.620157947806817,-146,-231,1775,15,10,12,11,
611,365,-198,-90,714,746.3912963867188,16.939348220825195,65.55267333984375,-15.383377021195624,-6.925587625074576,-43,-211,871,9,9,9,8,
612,365,-251,-96,691,741.4161987304688,21.249195098876953,69.06636810302734,-19.788026395222015,-7.439655903314325,-63,-166,466,10,7,8,7,
613,365,-207,-73,750,781.4588623046875,16.31045913696289,70.57122039794922,-15.360367571718813,-5.36010159676048,-223,-100,-195,7,6,7,10,
614,365,-246,-120,733,782.435302734375,20.47397232055664,63.99323272705078,-18.324776764973315,-8.82211804767376,41,-141,-995,11,10,9,12,
615,365,-255,-97,718,768.0872192382812,20.803770065307617,69.17030334472656,-19.389819995133916,-7.255127143172872,-339,123,-39,11,8,13,11,
616,377,-211,-125,723,763.4625244140625,18.735200881958008,59.35322570800781,-16.043819644404063,-9.423334968511767,-79,126,352,11,10,11,7,
617,377,-217,-108,736,774.8864135742188,18.226377487182617,63.5372200012207,-16.262653697474647,-8.011696896051648,38,217,71,12,10,14,11,
618,377,-223,-90,774,810.4967651367188,17.25752067565918,68.018310546875,-15.970351618930366,-6.375444008568118,-146,66,318,11,13,11,11,
619,377,-225,-171,784,833.3798828125,19.820466995239258,52.76140594482422,-15.663369771346124,-11.84053637242136,-36,-31,-452,12,10,16,13,
620,377,-237,-102,750,793.1412353515625,18.982311248779297,66.7105941772461,-17.386254343754374,-7.388847668551284,-176,20,344,12,11,13,14,
621,375,-245,-96,718,764.6992797851562,20.125110626220703,68.59963989257812,-18.68635350601356,-7.211914837757234,-44,-172,239,6,8,9,8,
622,375,-258,-137,723,779.7833251953125,21.99848175048828,62.027870178222656,-19.321052081029567,-10.118804740700615,97,-449,-104,10,12,14,13,
623,375,-217,-115,714,755.0562744140625,18.979188919067383,62.07499694824219,-16.702109927834904,-8.760616824617689,-91,-305,1,10,6,10,7,
624,375,-213,-112,673,714.7321166992188,19.673948287963867,62.26015853881836,-17.338343449166455,-9.015523902065771,-87,-356,-258,9,10,11,8,
625,375,-221,-94,758,795.1358642578125,17.577844619750977,66.95470428466797,-16.137291770514537,-6.789315266586424,-143,-263,428,17,11,16,14,
626,382,-256,-71,709,757.1380615234375,20.538997650146484,74.49586486816406,-19.762093277448102,-5.380770675565853,241,-105,-232,10,10,10,12,
627,382,-235,-105,684,730.8255615234375,20.619384765625,65.92113494873047,-18.756940022923498,-8.260450968334844,78,-32,657,11,9,11,7,
628,382,-198,-102,764,795.8040161132812,16.250782012939453,62.741207122802734,-14.406808531176123,-7.363987194413828,-113,-154,15,16,12,16,12,
629,382,-216,-92,712,749.7092895507812,18.247455596923828,66.9262466430664,-16.74493883621662,-7.048774787917483,-38,-257,-35,10,13,13,13,
630,382,-210,-66,732,764.382080078125,16.734933853149414,72.54964447021484,-15.946026289603548,-4.953328987301195,-103,49,34,12,11,12,14,
631,379,-228,-179,798,849.0164794921875,19.9613037109375,51.86118698120117,-15.577764929226166,-12.171124745850761,3,113,-62,7,9,10,10,
632,379,-209,-177,798,843.690673828125,18.940507888793945,49.7352294921875,-14.342700294523112,-12.110193779453617,-65,-88,614,11,13,13,9,
633,379,-221,-213,836,890.5650024414062,20.158592224121094,46.05207824707031,-14.368483949717946,-13.83779492778559,-156,-104,549,12,8,10,14,
634,379,-227,-72,750,786.90087890625,17.613889694213867,72.3988037109375,-16.766584796843855,-5.249802247528138,-152,82,127,12,8,12,14,
635,379,-239,-78,746,787.2235717773438,18.621994018554688,71.92221069335938,-17.67387343792156,-5.6863331681758655,9,275,83,12,9,12,10,
636,387,-219,-144,782,824.755126953125,18.527379989624023,56.67007064819336,-15.398647759411062,-10.055223167326329,-119,-131,-538,12,12,14,12,
637,387,-213,-130,741,781.8887329101562,18.609249114990234,58.59950256347656,-15.808159597160037,-9.570674436154333,-160,262,515,12,12,12,11,
638,387,-252,-74,717,763.5895385742188,20.115957260131836,73.63194274902344,-19.270003475344296,-5.561302544605231,91,271,547,19,14,19,18,
639,387,-249,-164,757,813.6006469726562,21.495737075805664,56.62608337402344,-17.82116244447288,-11.628964514015355,406,-544,-1121,16,14,17,20,
640,381,-219,-103,724,763.3779907226562,18.481191635131836,64.8080825805664,-16.67142366808509,-7.7543754976018935,-274,-105,-295,15,20,17,18,
641,381,-207,-87,708,742.7529907226562,17.594087600708008,67.20015716552734,-16.182209669562273,-6.726599774924477,-86,223,811,11,13,15,18,
642,381,-230,-106,750,791.6034545898438,18.656063079833984,65.25306701660156,-16.890857964609687,-7.695331091036549,-84,-210,130,20,16,17,16,
643,381,-233,-84,723,764.247314453125,18.907899856567383,70.17176055908203,-17.750650974976427,-6.310246261022601,-42,-162,1107,17,13,16,14,
644,381,-204,-96,720,754.4746704101562,17.38518714904785,64.79548645019531,-15.687286039924011,-7.310180829819916,-149,-63,451,15,15,13,14,
645,393,-201,-95,698,732.5503540039062,17.665035247802734,64.69945526123047,-15.92530044436634,-7.451327679505515,-152,-230,-489,15,17,14,18,
646,393,-231,-91,755,794.7748413085938,18.201078414916992,68.49527740478516,-16.896776721775378,-6.5746621487167705,-109,-121,-994,13,14,12,13,
647,393,-184,-95,734,762.6513061523438,15.752717018127441,62.68903732299805,-13.961131259988264,-7.15566162106514,-504,-279,137,12,12,15,15,
648,393,-214,-138,742,784.4768676757812,18.938922882080078,57.18002700805664,-15.830549190824872,-10.131816868030517,-258,42,-40,12,11,12,10,
649,393,-221,-96,709,748.8244018554688,18.767972946166992,66.51704406738281,-17.165288960407615,-7.365644366291693,132,-64,277,11,8,13,14,
650,398,-228,-90,711,752.067138671875,19.01976203918457,68.45573425292969,-17.647764911252,-6.8730672473893915,-4,213,1252,9,11,12,11,
651,398,-230,-60,723,761.0709838867188,18.19695281982422,75.37604522705078,-17.59013235266554,-4.521677990559932,-107,0,428,16,16,14,17,
652,398,-225,-81,738,775.7770385742188,17.95187759399414,70.19788360595703,-16.859859206356706,-5.99325840709126,-79,271,-716,11,8,9,9,
653,398,-211,-192,797,846.5187377929688,19.692398071289062,47.69538497924805,-14.43349897443275,-13.109410695319399,-115,130,-313,13,11,11,13,
654,398,-225,-130,745,789.0183715820312,19.226667404174805,59.97809600830078,-16.56867943356318,-9.483390743574878,-143,163,-484,10,10,10,9,
655,397,-249,-78,711,757.3677978515625,20.15064811706543,72.603515625,-19.19415132049547,-5.911274483921118,65,8,295,10,8,12,12,
656,397,-261,-100,691,745.3871459960938,22.020740509033203,69.03280639648438,-20.496710822373934,-7.709961167367882,256,239,460,14,6,12,12,
657,397,-221,-122,696,740.365478515625,19.933557510375977,61.0962028503418,-17.367605943883678,-9.48465697962901,-51,-381,957,6,6,8,9,
658,397,-226,-180,810,859.9860229492188,19.628936767578125,51.460269927978516,-15.23597012803062,-12.081668869132725,-11,-206,-501,8,7,7,7,
659,397,-212,-92,735,770.475830078125,17.45226287841797,66.53762817382812,-15.971229998329006,-6.8578646013246445,-26,333,-120,10,8,12,7,
660,405,-257,-86,715,764.6371459960938,20.7562313079834,71.4949951171875,-19.63987566759277,-6.457814762919054,146,206,-692,10,8,9,12,
661,405,-256,-134,717,773.0336303710938,21.947349548339844,62.36728286743164,-19.3393692580184,-9.982247662683616,122,-141,-841,10,9,8,8,
662,405,-210,-87,714,749.3096923828125,17.657194137573242,67.49315643310547,-16.275600928552088,-6.6674715793264,56,-279,321,12,8,11,11,
663,405,-188,-72,729,756.2863159179688,15.43545913696289,69.04095458984375,-14.39368331334385,-5.462948509951025,-311,-477,327,9,9,9,9,
664,405,-213,-77,752,785.367431640625,16.759319305419922,70.12171936035156,-15.736319432906612,-5.626505026778082,-72,170,1197,10,8,6,8,
665,404,-211,-152,765,807.9913330078125,18.77244758605957,54.22809600830078,-15.137800377807501,-10.843138193290939,-161,-43,1030,7,7,7,9,
666,404,-250,-107,709,759.361572265625,20.982187271118164,66.82573699951172,-19.22167784673113,-8.100382493148588,123,-100,-681,14,12,11,9,
667,404,-221,-78,738,774.3184204101562,17.615739822387695,70.5567398071289,-16.58349543853017,-5.781424832421736,-76,-327,447,9,6,5,8,
668,404,-192,-81,720,749.5498657226562,16.139631271362305,67.12300872802734,-14.841960321086871,-6.203775120925664,-328,-138,-1138,8,6,6,6,
669,404,-179,-99,766,792.8417358398438,14.949210166931152,61.05071258544922,-13.04817024251689,-7.173092193692739,-227,114,293,8,6,8,10,
670,412,-236,-270,831,905.0729370117188,23.339765548706055,41.151763916015625,-15.114715675503051,-17.35663646581479,208,165,-23,8,11,9,12,
671,412,-238,-79,780,819.31982421875,17.820392608642578,71.63410949707031,-16.886985452062078,-5.533138029427149,-153,-143,1061,9,7,9,9,
672,412,-189,-106,729,760.5248413085938,16.552440643310547,60.710750579833984,-14.389512956316558,-8.011822820034688,-142,-79,947,10,8,6,9,
673,412,-246,-109,717,765.82373046875,20.567440032958984,66.09901428222656,-18.736887142127838,-8.182719035258948,51,67,-739,11,8,7,9,
674,412,-222,-121,783,822.80859375,17.893354415893555,61.40413284301758,-15.65281717755218,-8.456430251382546,-123,-116,-827,6,10,7,6,
675,416,-213,-154,757,801.3326416015625,19.14557647705078,54.12917709350586,-15.414923351193606,-11.080026139824573,-50,-15,-844,8,7,5,6,
676,416,-225,-77,733,770.6121215820312,17.97275161743164,71.10469818115234,-16.976274941362565,-5.734596585722661,-245,48,129,7,5,8,9,
677,416,-240,-97,702,748.20654296875,20.239286422729492,67.98978424072266,-18.70931923793624,-7.448983367184712,61,94,466,9,8,10,10,
678,416,-241,-113,715,762.9384155273438,20.4169921875,64.87567901611328,-18.41418568963498,-8.517504796384905,201,-151,664,8,8,9,7,
679,409,-193,-71,720,748.7923583984375,15.938135147094727,69.7994155883789,-14.936499393549433,-5.440922013342933,-171,-537,1116,10,8,7,9,
680,409,-230,-84,725,765.232666015625,18.659608840942383,69.93368530273438,-17.491372721244126,-6.302088334569077,67,-334,-17,11,10,10,13,
681,409,-276,-86,731,786.087158203125,21.57526969909668,72.69010162353516,-20.554984692993493,-6.280880881311641,211,-199,-170,9,9,12,10,
682,409,-245,-135,745,795.7857666015625,20.578067779541016,61.14083480834961,-17.931022060093873,-9.767100510620295,165,-191,-639,7,6,6,5,
683,409,-226,-93,737,776.4624633789062,18.343252182006836,67.62930297851562,-16.92164540614383,-6.879058293898681,110,92,0,5,5,6,10,
684,415,-241,-98,705,751.4718627929688,20.25332260131836,67.86811828613281,-18.705501879653724,-7.493327651182957,211,-348,-1426,11,11,9,8,
685,415,-245,-64,738,780.2339477539062,18.935932159423828,75.35700225830078,-18.300961347715884,-4.7050689354246185,192,-426,1940,12,11,11,10,
686,415,-226,-120,739,782.0466918945312,19.096595764160156,62.02939987182617,-16.797217731310788,-8.82653707868158,-82,105,1090,4,5,4,6,
687,415,-239,-169,774,827.5010375976562,20.71380043029785,54.73167419433594,-16.787407109623917,-11.784389439793745,-58,-372,-123,7,8,8,10,
688,415,-255,-120,752,803.07470703125,20.54226303100586,64.79548645019531,-18.513591665552276,-8.593646391593879,114,74,-778,7,8,8,7,
689,423,-240,-79,696,740.4437866210938,19.950271606445312,71.77698516845703,-18.91287101618302,-6.124703174402147,16,-18,-692,9,5,7,7,
690,423,-213,-120,707,748.076171875,19.07303237915039,60.600425720214844,-16.542731143533253,-9.230779992257794,72,-284,-638,12,9,9,8,
691,423,-189,-172,793,833.1590576171875,17.85968017578125,47.69224548339844,-13.111538293409458,-11.91399425106928,-264,-50,514,9,8,11,13,
692,423,-209,-119,775,811.4597778320312,17.23839569091797,60.34024429321289,-14.925360620949228,-8.43279739836217,-156,-63,1462,8,7,8,9,
693,423,-191,-93,741,770.850830078125,15.994950294494629,64.03460693359375,-14.346074003929774,-6.929381357407194,-354,-135,168,12,7,8,7,
694,423,-249,-102,712,761.1497802734375,20.700727462768555,67.72078704833984,-19.09507429421008,-7.701249042609274,-77,-20,-157,10,14,6,8,
695,423,-241,-112,720,767.4796142578125,20.25716209411621,65.07089233398438,-18.30135108458013,-8.391265109989154,105,-288,-860,10,15,8,7,
696,423,-195,-93,734,765.1339721679688,16.39881134033203,64.4990463256836,-14.765131294893147,-6.981412424822921,161,-469,-1119,9,7,9,8,
697,423,-236,-78,717,758.8603515625,19.117334365844727,71.70764923095703,-18.119063563644673,-5.899606939577039,38,-265,970,8,8,12,13,
698,423,-229,-182,720,777.15185546875,22.108470916748047,51.51993942260742,-17.13749281070412,-13.543790468176606,-125,-32,-7,8,8,11,12,
699,425,-232,-120,705,751.8304443359375,20.327234268188477,62.64665985107422,-17.97368874094544,-9.184286561030262,-4,-197,1074,9,6,7,9,
700,425,-222,-103,721,761.4026489257812,18.746749877929688,65.10700988769531,-16.9518022012403,-7.77461750126629,6,-420,509,12,7,7,8,
701,425,-207,-69,732,763.8284912109375,16.596290588378906,71.56185150146484,-15.723974010599898,-5.182845872215448,-82,22,150,12,9,9,8,
702,425,-217,-70,722,757.14794921875,17.524219512939453,72.11812591552734,-16.65462269597211,-5.304696713070013,-31,97,-379,12,10,11,11,
703,425,-222,-143,790,832.9663696289062,18.480911254882812,57.20899963378906,-15.457133937159577,-9.88525600149771,-297,-8,-764,10,9,11,13,
704,438,-211,-120,770,807.3543090820312,17.494911193847656,60.36869812011719,-15.150030593109859,-8.54775147249092,-268,-148,-647,14,14,15,14,
705,438,-247,-81,737,781.4979248046875,19.42582893371582,71.8406753540039,-18.424798893402304,-5.949226309402503,10,-54,386,9,11,11,11,
706,438,-217,-66,717,752.0199584960938,17.552040100097656,73.07984161376953,-16.77153611279254,-5.034963325918659,106,-83,541,14,10,12,11,
707,438,-225,-96,753,791.7385864257812,17.995100021362305,66.89033508300781,-16.51012076463338,-6.964372727669474,-92,298,306,17,13,16,11,
708,438,-243,-138,750,800.3705444335938,20.433427810668945,60.4041748046875,-17.674520189158727,-9.928560991052887,49,-187,480,11,13,14,16,
709,431,-235,-119,731,777.0115966796875,19.814306259155273,63.13966369628906,-17.604261999830253,-8.809568499934258,-9,-175,20,10,14,10,9,
710,431,-216,-77,719,754.6827392578125,17.687166213989258,70.37655639648438,-16.63136876547361,-5.8560577585600715,33,-208,-1110,13,13,12,11,
711,431,-211,-123,699,740.4397583007812,19.25754165649414,59.756900787353516,-16.556804201767324,-9.562158653953594,45,-239,-365,15,14,13,13,
712,431,-228,-85,710,750.5391235351562,18.915359497070312,69.55093383789062,-17.68487860763956,-6.502808832591732,29,-19,608,13,14,12,13,
713,431,-216,-101,718,756.5586547851562,18.369159698486328,64.93616485595703,-16.588936145778693,-7.671846732258085,-33,-198,370,18,15,17,19,
714,433,-207,-123,726,764.8882446289062,18.34657859802246,59.27754211425781,-15.701626602223978,-9.25378744684713,-58,31,-149,11,13,15,16,
715,433,-232,-81,707,748.48779296875,19.163944244384766,70.75074768066406,-18.056716765278644,-6.212612515546809,17,-133,-76,12,11,13,16,
716,433,-223,-91,732,770.6062622070312,18.210830688476562,67.79771423339844,-16.82099356952742,-6.7818170055820355,29,-213,316,13,13,15,18,
717,433,-236,-91,749,790.5554809570312,18.657682418823242,68.9104232788086,-17.368988616831256,-6.609908161423396,-13,-273,-106,15,16,14,17,
718,436,-227,-99,768,806.941162109375,17.870281219482422,66.43350982666016,-16.338359917866725,-7.047117536744845,35,-176,-531,15,14,15,17,
719,436,-233,-150,798,844.7443237304688,19.147645950317383,57.223876953125,-16.01107136404951,-10.228164735729827,-21,12,709,12,14,14,12,
720,436,-230,-126,750,794.52880859375,19.27106475830078,61.28141784667969,-16.826812296253635,-9.124748661634536,8,146,112,18,19,18,15,
721,436,-250,-87,744,789.6866455078125,19.58281707763672,70.80888366699219,-18.456299925646167,-6.325131629081655,45,7,196,15,13,15,15,
722,436,-220,-102,731,770.1720581054688,18.35017204284668,65.1224594116211,-16.597733400714237,-7.610494280867336,-54,-215,162,13,11,11,11,
723,435,-210,-126,758,796.5802001953125,17.902849197387695,59.03267288208008,-15.285381446802269,-9.101050168142464,-11,-118,232,11,12,11,11,
724,435,-211,-81,734,768.0090942382812,17.112497329711914,68.99562072753906,-15.946301344370516,-6.054101798859997,-17,185,-139,11,11,10,13,
725,435,-243,-126,690,742.3106079101562,21.63629913330078,62.58897018432617,-19.10838826319064,-9.77271826423882,-91,-251,-459,13,9,17,18,
726,435,-232,-94,717,759.43994140625,19.24308204650879,67.94026184082031,-17.78754268072908,-7.110043662786979,37,-366,354,11,9,11,8,
727,435,-222,-102,744,783.086181640625,18.176788330078125,65.31976318359375,-16.468830439703456,-7.4842621155818865,22,-252,697,9,10,9,9,
728,451,-225,-120,714,758.1694946289062,19.651750564575195,61.924034118652344,-17.263549265008425,-9.106840430957751,-4,-210,69,8,7,7,9,
729,451,-222,-99,710,750.45654296875,18.896944046020508,65.96234893798828,-17.20671066857491,-7.580538547676126,-10,-171,-90,9,8,11,8,
730,451,-240,-144,751,801.4592895507812,20.43756675720215,59.03267288208008,-17.42479771484693,-10.350670271968562,71,-293,-106,8,9,8,9,
731,451,-226,-98,718,759.0809936523438,18.93409538269043,66.5537338256836,-17.321218226736406,-7.417788807230251,55,-337,28,13,7,7,11,
732,451,-222,-126,759,800.7752685546875,18.586557388305664,60.41862869262695,-16.095032039115303,-9.052970215855552,-4,-231,-72,11,6,9,9,
733,440,-216,-129,740,781.5989990234375,18.775165557861328,59.14984130859375,-16.042871723694017,-9.499922402231872,-71,-541,301,9,8,8,8,
734,440,-227,-113,748,789.8113403320312,18.724449157714844,63.53257751464844,-16.70298366134746,-8.225656769849959,-70,-344,351,9,5,9,8,
735,440,-225,-75,729,766.6100463867188,18.019512176513672,71.56185150146484,-17.06760823331903,-5.614416381069395,34,-244,361,8,10,9,8,
736,440,-228,-99,751,791.0663452148438,18.31138801574707,66.5256576538086,-16.751333092471093,-7.189275373852453,0,-110,-50,4,11,8,10,
737,440,-224,-97,763,801.0955200195312,17.738483428955078,66.58232116699219,-16.23735333826827,-6.9546784030641335,25,-540,-46,7,8,8,9,
738,447,-225,-136,781,824.0643310546875,18.602718353271484,58.845794677734375,-15.845062722207377,-9.4993061358533,-72,-502,681,6,9,9,9,
739,447,-218,-121,696,739.3111572265625,19.707048416137695,60.96421432495117,-17.149686734852764,-9.41974050784596,-10,-555,361,7,8,8,8,
740,447,-225,-72,747,783.4653930664062,17.547456741333008,72.25215148925781,-16.689538707377196,-5.272887754754745,-25,763,382,7,9,10,10,
741,447,-227,-258,778,850.5157470703125,23.8293399810791,41.33866882324219,-15.47969668342,-17.658644530435755,-21,53,-1007,10,9,8,7,
742,447,-245,-141,802,850.3587646484375,19.413663864135742,60.07560729980469,-16.745059279888956,-9.544429980924885,52,-182,436,9,19,11,12,
743,453,-227,-60,690,728.8545532226562,18.79049301147461,75.19123840332031,-18.146490435152653,-4.721986436100177,-65,164,105,14,11,8,8,
744,453,-216,-96,721,758.7575073242188,18.149084091186523,66.03414916992188,-16.539477753307963,-7.268694315358414,-45,-376,81,6,11,8,8,
745,453,-221,-142,718,764.5449829101562,20.09352684020996,57.27425765991211,-16.8017375258044,-10.7037771103762,79,-832,535,13,8,11,7,
746,453,-219,-50,704,738.97021484375,17.69492530822754,77.13617706298828,-17.239008038895204,-3.8796953693131813,2,-618,541,9,12,11,10,
747,453,-217,-51,756,788.1788940429688,16.4263916015625,76.77114868164062,-15.980977712273663,-3.709979582634201,-110,-479,545,6,11,6,5,
748,458,-214,-149,790,831.9236450195312,18.264846801757812,55.14830017089844,-14.906067957183415,-10.31751465068739,89,318,530,7,8,11,9,
749,458,-231,-108,708,752.5217895507812,19.80539894104004,64.93898010253906,-17.876594768265107,-8.251437099941596,85,-360,-415,8,12,12,9,
750,458,-222,-56,693,729.8417358398438,18.280467987060547,75.83929443359375,-17.708568265923187,-4.400570776803584,25,-610,128,10,7,9,7,
751,458,-234,-50,720,758.719970703125,18.38141441345215,77.93567657470703,-17.963687669236062,-3.77855691494581,-38,-657,285,8,7,7,6,
752,458,-234,-132,780,824.9727172851562,19.00367546081543,60.56901931762695,-16.477914981023808,-9.2072032439302,83,93,631,16,12,13,12,
753,457,-200,-177,803,846.2493896484375,18.39482879638672,48.48728942871094,-13.670444813545572,-12.073025500825509,-78,383,1475,8,9,10,12,
754,457,-201,-98,780,811.4215698242188,15.994868278503418,64.00447082519531,-14.342244028133788,-6.936871765300996,-26,231,-498,6,9,8,5,
755,457,-225,-89,697,737.80419921875,19.142297744750977,68.41516876220703,-17.755695368706114,-6.928359980074252,-31,-209,-265,9,10,7,6,
756,457,-239,-117,676,726.4888305664062,21.4846248626709,63.913002014160156,-19.2068530607545,-9.267765404139812,70,-306,-1132,12,10,11,9,
757,457,-228,-210,792,850.4986572265625,21.37242889404297,47.349388122558594,-15.549929698527466,-14.294971326970474,-111,-151,366,10,9,9,10,
758,469,-205,-149,732,774.6289672851562,19.094465255737305,53.98551940917969,-15.345731107545472,-11.089968630527922,18,71,-376,6,10,10,9,
759,469,-237,-91,733,775.7183837890625,19.101118087768555,68.99162292480469,-17.78964667647076,-6.736915815922372,13,-330,-161,6,7,6,7,
760,469,-225,-128,715,760.4169921875,19.90038299560547,60.36140441894531,-17.210930417344727,-9.69066007270989,70,-10,952,11,6,7,9,
761,469,-216,-93,755,790.778076171875,17.298810958862305,66.70209503173828,-15.851718394553407,-6.753939922485972,-40,-186,705,7,7,6,6,
762,456,-239,-77,723,765.3619995117188,19.15000343322754,72.1391372680664,-18.196116633462648,-5.774066959648261,66,-293,290,9,9,10,8,
763,456,-218,-74,733,768.3026733398438,17.434080123901367,71.24703979492188,-16.483686959419604,-5.527080383653102,128,-96,-216,9,6,10,8,
764,456,-222,-141,751,795.71728515625,19.29764175415039,57.5753288269043,-16.200146527127686,-10.206629299682097,-79,-8,-1290,6,8,8,7,
765,456,-216,-108,729,767.958984375,18.32633399963379,63.431514739990234,-16.33571965832827,-8.084448562927346,-64,-225,784,9,9,7,9,
766,456,-222,-93,721,760.1144409179688,18.458541870117188,67.2669448852539,-16.98140193644472,-7.027746873267324,13,-228,257,7,8,7,7,
767,461,-230,-71,740,778.1651611328125,18.016698837280273,72.84161376953125,-17.19154499967572,-5.234963045280359,-6,-36,450,7,7,6,7,
768,461,-234,-81,732,772.7489624023438,18.687667846679688,70.90328979492188,-17.626758419916687,-6.016829715461078,-25,-40,969,10,7,8,5,
769,461,-219,-166,777,824.163818359375,19.475204467773438,52.834449768066406,-15.409969741955122,-11.619790714741033,-108,128,243,9,8,7,7,
770,461,-228,-129,721,767.1153564453125,19.965736389160156,60.495758056640625,-17.290547190692276,-9.68099709223284,-90,-328,-797,9,9,6,6,
771,461,-196,-87,742,772.3658447265625,16.11733627319336,66.061279296875,-14.700462491706864,-6.467575588017081,-35,-54,-741,8,9,9,8,
772,473,-208,-148,738,780.9046020507812,19.07883071899414,54.56298828125,-15.447646659543873,-10.924994431015634,5,-287,-130,11,7,10,10,
773,473,-234,-144,756,804.3804931640625,19.97093391418457,58.38890838623047,-16.912270533073958,-10.312668427404885,20,-52,506,8,8,7,6,
774,473,-255,-165,750,809.166259765625,22.044422149658203,57.09113693237305,-18.36921731527256,-11.76590958488742,-44,9,966,6,10,9,6,
775,473,-228,-100,702,744.8409423828125,19.525087356567383,66.31455993652344,-17.82469362958218,-7.715649640496509,-6,-129,957,10,9,9,10,
776,473,-216,-96,720,757.807373046875,18.172643661499023,66.03414916992188,-16.560812787012928,-7.277857441161331,-5,-288,-50,5,6,4,6,
777,472,-225,-113,725,767.4757080078125,19.149259567260742,63.329742431640625,-17.04776776056886,-8.46677821976699,88,-66,-647,7,8,7,6,
778,472,-228,-89,711,751.9481201171875,18.993444442749023,68.67349243164062,-17.650649955411335,-6.797418344400081,10,-382,-586,10,7,6,6,
779,472,-219,-82,730,766.5409545898438,17.760217666625977,69.46936798095703,-16.60063744123349,-6.140912887901458,-23,-325,87,9,10,9,10,
780,472,-223,-88,782,817.92236328125,17.04164695739746,68.46158599853516,-15.821542628140023,-6.176389327524504,-40,-90,845,11,11,11,10,
781,472,-221,-117,734,775.4263305664062,18.810909271240234,62.09925842285156,-16.559117981199297,-8.678201942241087,-129,-79,837,9,7,10,9,
782,477,-210,-118,750,787.7334594726562,17.803617477416992,60.66463088989258,-15.461311737017944,-8.615154600527992,-199,-355,420,11,8,9,6,
783,477,-229,-91,698,740.22021484375,19.442726135253906,68.3248291015625,-18.021110383996547,-7.061600177817969,-25,-345,24,9,6,10,10,
784,477,-225,-83,726,764.5848388671875,18.27790641784668,69.748291015625,-17.11420879918214,-6.232061373205634,-3,-326,-232,7,7,8,6,
785,477,-221,-141,767,810.5621337890625,18.867538452148438,57.45814514160156,-15.82203520470968,-10.017755201375673,-146,10,-417,6,8,7,7,
786,477,-225,-134,756,800.0731201171875,19.104082107543945,59.22029113769531,-16.333288079099393,-9.641605786195013,-50,-152,-586,6,8,8,8,
787,474,-254,-166,735,795.1710205078125,22.430551528930664,56.83000946044922,-18.628344009167193,-12.049701714240484,-112,-80,967,9,8,7,9,
788,474,-218,-52,723,756.939208984375,17.22028160095215,76.58076477050781,-16.738375433721327,-3.9391920406443215,36,34,1200,7,9,6,7,
789,474,-224,-78,745,781.84716796875,17.658218383789062,70.79793548583984,-16.6485917410542,-5.725565893166318,-13,-125,357,7,7,8,9,
790,474,-225,-173,767,817.8282470703125,20.304414749145508,52.4399528503418,-15.969099897943318,-12.212373034089216,44,-134,573,10,10,12,11,
791,474,-257,-136,744,798.7997436523438,21.344266891479492,62.10950469970703,-18.767744241632915,-9.80267130824675,-28,16,-248,6,16,8,7,
792,486,-214,-66,718,752.1143798828125,17.320722579956055,72.85649108886719,-16.530828249566635,-5.03432969860381,-59,1,-531,5,7,7,7,
793,486,-205,-122,697,736.6939697265625,18.891984939575195,59.2386360168457,-16.156993768722447,-9.532365831540023,-77,74,-862,9,10,9,11,
794,486,-221,-143,715,761.9153442382812,20.209314346313477,57.09113693237305,-16.861456522119095,-10.817707864445262,6,-72,451,7,8,10,11,
795,486,-246,-95,741,786.5252685546875,19.587495803833008,68.88121795654297,-18.226127395866257,-6.937375943449775,-166,-179,1693,8,16,10,9,
796,486,-237,-75,702,744.71337890625,19.497390747070312,72.43655395507812,-18.5567171125443,-5.780050450311886,59,-263,128,9,11,10,8,
797,487,-200,-82,741,771.884033203125,16.260332107543945,67.70305633544922,-15.017038038641163,-6.098242515169536,-64,6,144,8,7,9,9,
798,487,-228,-123,715,760.4853515625,19.91460418701172,61.65081787109375,-17.446103258805042,-9.307837475513859,106,-32,-616,7,17,7,11,
799,487,-206,-108,745,780.464599609375,17.336576461791992,62.32977294921875,-15.304294488408104,-7.954063361479495,-49,-141,-427,8,7,8,5,
800,487,-224,-87,711,750.510498046875,18.671985626220703,68.77090454101562,-17.36534164532602,-6.656755380113857,-99,-265,-210,7,9,8,8,
801,481,-220,-84,757,792.7830810546875,17.277963638305664,69.09896087646484,-16.111256317370714,-6.082239638890752,-71,-210,172,7,7,8,7,
802,481,-244,-109,731,778.3174438476562,20.07938003540039,65.92530059814453,-18.270089316523073,-8.050490171206828,-217,-35,904,8,6,10,10,
803,481,-204,-150,763,803.9185180664062,18.35697364807129,53.669437408447266,-14.69994743995449,-10.753617886690119,193,-94,983,9,7,7,11,
804,481,-195,-106,726,759.1686401367188,16.99696159362793,61.46846008300781,-14.88382276222438,-8.026229581851318,154,-149,328,9,8,10,10,
805,481,-224,-90,741,779.3311157226562,18.042537689208984,68.10713958740234,-16.703914873016792,-6.631521817714662,94,-320,-142,9,8,10,11,
806,492,-191,-114,763,794.7615966796875,16.250591278076172,59.16519546508789,-13.905642599149557,-8.246909480275626,-83,-104,-1051,8,11,7,5,
807,492,-211,-123,764,802.0885009765625,17.725765228271484,59.756900787353516,-15.251901475883471,-8.821094299583281,73,-72,-838,6,7,7,8,
808,492,-238,-124,720,768.387939453125,20.439868927001953,62.47663879394531,-18.043525118587674,-9.286820845067732,91,-263,377,11,7,9,9,
809,492,-220,-84,744,780.37939453125,17.561492919921875,69.09896087646484,-16.37448091043592,-6.1792868919123425,150,6,947,9,11,8,8,
810,492,-200,-91,717,749.913330078125,17.03588104248047,65.53108978271484,-15.46784217299082,-6.96986872386222,-60,-25,869,9,15,8,5,
811,487,-214,-146,725,769.8941650390625,19.660951614379883,55.69284439086914,-16.138506027912058,-10.931569117315341,67,-228,541,8,11,9,10,
812,487,-196,-100,704,737.5852661132812,17.35457420349121,62.96568298339844,-15.410452606012116,-7.792018043079524,-25,-241,348,6,13,7,7,
813,487,-256,-106,731,781.7499389648438,20.756628036499023,67.50407409667969,-19.11531295133875,-7.792924736385448,-150,-87,-550,8,16,8,11,
814,487,-192,-77,738,766.4443969726562,15.656224250793457,68.14385986328125,-14.50754022865187,-5.76588509308593,32,90,-785,8,8,9,8,
815,487,-223,-161,741,790.3992919921875,20.361940383911133,54.16801452636719,-16.38772271416594,-11.753088224850254,-291,-305,-82,8,11,9,8,
816,498,-267,-110,700,757.2245483398438,22.415660858154297,67.60575866699219,-20.64663793868742,-8.352760992372724,-301,-132,1144,10,14,11,12,
817,498,-230,-116,709,754.3453979492188,19.96522331237793,63.23255920410156,-17.752154469603436,-8.845798259751025,-290,-147,1771,7,9,9,7,
818,498,-231,-98,762,802.25244140625,18.22471046447754,67.0079574584961,-16.734624318768773,-7.016551391798572,-82,-226,822,7,9,6,7,
819,498,-222,-139,763,806.7056274414062,18.944421768188477,57.94463348388672,-15.97353472292633,-9.921905829697206,-336,-171,-110,10,8,6,10,
820,498,-234,-115,745,789.3073120117188,19.286699295043945,63.824615478515625,-17.24525503593537,-8.377664678882187,-398,106,-1099,9,9,8,7,
821,500,-231,-94,738,779.0,18.669614791870117,67.85398864746094,-17.249546623193787,-6.9306287507935505,-33,51,-455,8,8,8,8,
822,500,-254,-60,706,752.6964721679688,20.286027908325195,76.7061538696289,-19.721798117016696,-4.5720924550120445,132,-272,921,9,15,6,6,
823,500,-213,-97,783,817.2313232421875,16.639801025390625,65.51214599609375,-15.107810917041192,-6.816703686634184,-150,83,292,11,19,7,7,
824,500,-213,-134,789,828.158203125,17.68748664855957,57.82207107543945,-14.903820852530714,-9.311670810476906,-222,-17,113,10,10,9,8,
825,500,-225,-134,778,820.892822265625,18.60144805908203,59.22029113769531,-15.907899637099952,-9.394827907708818,-65,35,-50,9,12,10,8,
826,510,-249,-66,737,780.721435546875,19.263612747192383,75.15145111083984,-18.598576946392907,-4.849412131300989,150,104,-159,6,10,8,7,
827,510,-216,-140,724,768.395751953125,19.569656372070312,57.047149658203125,-16.326174789561193,-10.497800791395962,-52,-154,325,8,9,9,10,
828,510,-225,-110,735,776.49853515625,18.81432342529297,63.943084716796875,-16.843725334662302,-8.144005273868684,161,-341,125,9,12,9,8,
829,510,-228,-107,772,812.044921875,18.066396713256836,64.85601806640625,-16.30632336640983,-7.5716606986985315,-67,-31,-450,8,10,6,6,
830,510,-227,-111,721,763.9967041015625,19.31171226501465,63.93854904174805,-17.28480698218505,-8.353990593086289,-36,48,83,5,8,5,5,
831,512,-209,-114,737,774.4972534179688,17.89961814880371,61.386043548583984,-15.655488331377697,-8.464248681732947,-136,-20,1057,10,10,11,14,
832,512,-220,-141,714,760.313720703125,20.09931182861328,57.3401985168457,-16.81929867097819,-10.687355304819432,38,-202,114,7,6,7,7,
833,512,-220,-95,712,751.2449951171875,18.599384307861328,66.6410903930664,-17.028492055202282,-7.264889273479031,-180,-282,137,8,8,9,8,
834,512,-213,-91,726,762.0538330078125,17.692747116088867,66.863037109375,-16.23083227317677,-6.85829217981252,-165,-179,506,6,5,7,9,
835,512,-198,-78,767,795.9755249023438,15.504862785339355,68.49527740478516,-14.40363724818725,-5.623608189792034,-195,-252,-7,10,14,11,8,
836,517,-202,-162,792,833.2538452148438,18.102500915527344,51.26727294921875,-14.029599029395637,-11.210758363788912,-188,-143,-306,10,9,7,5,
837,517,-233,-108,761,803.1649780273438,18.645790100097656,65.12797546386719,-16.864079877160247,-7.727858776829442,-68,-20,770,10,11,9,7,
838,517,-230,-111,750,792.2884521484375,18.802227020263672,64.23422241210938,-16.875816227776774,-8.053661127842513,-27,156,-106,6,10,9,6,
839,517,-204,-67,724,755.1694946289062,16.51690101623535,71.81500244140625,-15.672480150207939,-5.09007753586344,-77,-97,514,11,12,10,11,
840,517,-232,-126,740,785.6843872070312,19.632644653320312,61.48996353149414,-17.174565221963373,-9.228357501067604,-166,-322,577,6,6,8,8,
841,512,-216,-140,777,818.526123046875,18.326744079589844,57.047149658203125,-15.300944707945645,-9.848242147566808,-305,181,631,7,6,8,10,
842,512,-219,-133,736,779.3240356445312,19.192371368408203,58.725868225097656,-16.320658164754903,-9.826236459550293,-175,289,-924,9,7,9,7,
843,512,-252,-60,706,752.02392578125,20.146953582763672,76.60445404052734,-19.578358551916118,-4.576190082508853,-49,175,-381,11,7,7,8,
844,512,-215,-150,736,781.29443359375,19.603219985961914,55.09381866455078,-15.973000342820677,-11.068887405322256,34,-156,1129,10,8,11,8,
845,508,-196,-112,681,717.4406127929688,18.337617874145508,60.251583099365234,-15.854378660634437,-8.981206538440246,125,-323,-832,9,7,10,8,
846,508,-212,-84,704,740.0108032226562,17.945709228515625,68.38192749023438,-16.64747324442653,-6.517798576945775,-21,-277,-522,8,8,7,6,
847,508,-241,-57,735,775.5997924804688,18.61848258972168,76.69020080566406,-18.103064730911292,-4.214553117071777,30,-193,188,6,7,8,8,
848,508,-241,-128,669,722.513671875,22.188373565673828,62.02284240722656,-19.484856508201606,-10.204339326767546,130,-119,17,9,7,8,11,
849,508,-216,-139,730,773.8714599609375,19.38299560546875,57.23434066772461,-16.207459643778122,-10.347416884299088,318,-72,847,8,10,12,11,
850,515,-208,-113,732,769.3224487304688,17.917957305908203,61.48263931274414,-15.686153280215922,-8.446305703220485,-50,-529,487,12,14,8,10,
851,515,-225,-77,714,752.5623168945312,18.419172286987305,71.10469818115234,-17.39626422652944,-5.8726157717067755,-181,-386,223,11,11,7,8,
852,515,-222,-84,747,783.80419921875,17.62560272216797,69.27117919921875,-16.453315570867932,-6.152182354478178,-71,-51,-325,10,5,8,7,
853,515,-225,-170,791,839.7654418945312,19.619735717773438,52.92317581176758,-15.541243320691745,-11.679532529848572,-44,-75,-301,8,6,9,9,
854,515,-246,-148,762,814.2874145507812,20.64220428466797,58.96421813964844,-17.58405607433621,-10.471942363422757,-231,27,177,10,6,12,11,
855,524,-204,-100,688,724.541259765625,18.272153854370117,63.882659912109375,-16.353181659217586,-7.933194033056998,-161,-405,175,8,7,11,10,
856,524,-219,-56,718,752.7423095703125,17.47332000732422,75.65330505371094,-16.9140140477242,-4.266441025737621,-70,-63,593,9,7,8,8,
857,524,-219,-129,762,803.2720336914062,18.44428825378418,59.49660873413086,-15.821119296617256,-9.241327143436608,-79,-75,552,10,6,7,7,
858,524,-215,-180,817,863.7789306640625,18.940570831298828,50.05978012084961,-14.41280129576022,-12.02782304342753,-284,103,-553,10,9,8,7,
859,524,-222,-104,723,763.432373046875,18.728534698486328,64.8949966430664,-16.90537558694296,-7.829569534678499,-32,-223,-138,9,6,13,10,
860,531,-247,-74,713,758.1912841796875,19.87976837158203,73.31889343261719,-19.01255387031003,-5.601024879477459,-33,-75,619,7,8,7,8,
861,531,-234,-147,693,746.065673828125,21.738229751586914,57.85914611816406,-18.27905161657214,-11.363544850310298,-64,-694,182,9,8,8,11,
862,531,-216,-147,753,797.040771484375,19.133644104003906,55.75886917114258,-15.723926922212234,-10.628031401440765,-183,-97,-163,10,8,10,8,
863,531,-201,-186,793,838.955322265625,19.049821853637695,47.215728759765625,-13.861970215774333,-12.80915460679443,-1,-52,1543,13,9,8,11,
864,531,-224,-102,739,778.91015625,18.41865348815918,65.51414489746094,-16.713208063891837,-7.524620067629855,4,223,-302,10,10,11,8,
865,519,-241,-84,727,770.4972534179688,19.34197235107422,70.78089904785156,-18.22714951226107,-6.258855182659281,29,30,-871,11,11,8,8,
866,519,-210,-84,702,737.5364379882812,17.856258392333984,68.19529724121094,-16.542811328587284,-6.5397605225843956,-135,-113,452,5,9,8,8,
867,519,-211,-215,717,777.7113647460938,22.787267684936523,44.45802688598633,-15.742167293455468,-16.04857269552463,195,-402,-256,17,9,10,8,
868,519,-193,-24,708,734.226806640625,15.357982635498047,82.90866088867188,-15.239924725764066,-1.873186450526594,-286,-423,-1794,14,9,9,10,
869,519,-208,-96,735,769.8733520507812,17.30908966064453,65.22148895263672,-15.674639146375103,-7.163190813386135,-274,17,1202,10,9,10,11,
