step,tof,accX,accY,accZ,acc,incl,orient,roll,pitch,gyroX,gyroY,gyroZ,mic0,mic1,mic2,mic3,
0,26,-227,-105,732,773.5489501953125,18.86204719543457,65.1734848022461,-17.064775173207757,-7.80129780681065,-41,-117,129,3,3,2,2,
1,27,-223,-105,727,767.647705078125,18.726696014404297,64.78311157226562,-16.88776329364163,-7.861647690688375,-31,-131,127,3,2,3,3,
2,27,-223,-105,735,775.2283325195312,18.53683853149414,64.78311157226562,-16.7177465199238,-7.784292861608219,-37,-115,127,4,2,2,2,
3,27,-226,-108,739,780.2954711914062,18.721675872802734,64.4545669555664,-16.836038170633472,-7.9557987680255255,3,-104,124,4,3,3,3,
4,27,-225,-106,739,779.7319946289062,18.599124908447266,64.77095031738281,-16.771805822286943,-7.813218694404037,-31,-154,119,4,4,4,4,
5,28,-226,-103,738,778.6713256835938,18.597909927368164,65.49539184570312,-16.87220511685545,-7.601168742997604,-58,-150,110,5,3,3,3,
6,28,-193,-132,717,754.1630859375,18.059667587280273,55.62663269042969,-14.827680054666043,-10.080313679505593,-8,3428,-1991,10,7,8,7,
7,28,-216,-30,616,653.4615478515625,19.492656707763672,82.08995056152344,-19.302002219587038,-2.631337308418668,-418,527,659,303,120,113,97,
8,28,-206,-105,758,792.4802856445312,16.961376190185547,62.98822021484375,-15.066702278546739,-7.613816405272254,-216,78,1284,40,24,23,26,
9,28,-208,-90,786,818.0220336914062,16.082277297973633,66.59889221191406,-14.730445422371664,-6.316554388934063,-179,579,-284,16,9,13,9,
10,25,-256,-88,694,744.9268188476562,21.306821823120117,71.02638244628906,-20.099890985010326,-6.784330642357531,-15,43,-1128,31,32,11,12,
11,25,-176,-69,726,750.2086181640625,14.592855453491211,68.58927917480469,-13.568128101255768,-5.277203905005175,-341,-402,-357,20,10,14,12,
12,25,-217,-101,699,738.8443603515625,18.900257110595703,65.03755950927734,-17.079714365299846,-7.856932192551215,-185,11,92,9,7,8,7,
13,25,-222,-188,759,812.840087890625,20.968751907348633,49.736663818359375,-15.849798439067287,-13.37290217064555,-168,41,1455,10,6,8,5,
14,25,-252,-205,824,885.7228393554688,21.51422691345215,50.86810302734375,-16.529762693968006,-13.382417244692368,-92,-191,135,11,6,8,8,
15,28,-228,-69,702,741.3157348632812,18.741689682006836,73.15937805175781,-17.912322191676044,-5.340692783366576,-127,-73,216,10,6,9,9,
16,28,-225,-117,738,780.3576049804688,18.962379455566406,62.52210235595703,-16.757962854288582,-8.622943014815357,-106,9,351,9,6,8,7,
17,28,-224,-121,691,736.4088745117188,20.22374153137207,61.61954879760742,-17.70876852487803,-9.457205476225385,164,-173,-653,8,7,7,7,
18,28,-228,-166,728,780.7201538085938,21.174415588378906,53.93903350830078,-16.98001064041604,-12.276181272898326,23,-279,-764,9,10,9,9,
19,28,-222,-70,737,772.8861694335938,17.526098251342773,72.4959716796875,-16.692495329500062,-5.196377387383243,-118,-511,75,10,9,9,11,
20,32,-230,-200,789,845.8256225585938,21.11978530883789,48.98704147338867,-15.778767834988356,-13.677426496068659,-16,91,226,9,7,10,7,
21,32,-219,-113,680,723.2772827148438,19.91864013671875,62.70363998413086,-17.625160995784118,-8.988331113500362,30,-257,1250,11,8,10,9,
22,32,-249,-79,696,743.4097290039062,20.570716857910156,72.39420318603516,-19.56908172406349,-6.1001749663226565,47,59,238,12,8,9,10,
23,32,-219,-69,701,737.6469116210938,18.134098052978516,72.50883483886719,-17.2709048408149,-5.367333226848607,-87,-481,483,11,6,7,8,
24,32,-212,-59,728,760.5320434570312,16.816638946533203,74.44490051269531,-16.185747612046587,-4.449320614255701,-90,-89,129,10,8,8,10,
25,25,-228,-133,783,826.2941284179688,18.627321243286133,59.74001693725586,-16.017491285295247,-9.262601061547016,-25,-13,-342,6,9,9,7,
26,25,-238,-142,779,826.8306884765625,19.581806182861328,59.17449951171875,-16.72904966052199,-9.889008532855085,-285,-111,-1061,8,9,7,7,
27,25,-216,-97,711,749.3904418945312,18.41691780090332,65.81301879882812,-16.752273807456866,-7.437148773015229,-196,93,-389,8,6,9,6,
28,25,-240,-128,723,772.4719848632812,20.61476707458496,61.924034118652344,-18.100870480199927,-9.53800573582549,-78,-89,1051,11,7,11,10,
29,25,-246,-87,720,765.8230590820312,19.91866111755371,70.52019500732422,-18.736903710894584,-6.523069841479388,341,-403,706,6,5,7,9,
30,26,-224,-124,744,786.8214721679688,18.98767852783203,61.02882766723633,-16.54030412640554,-9.0673932653114,48,205,377,12,8,9,9,
31,26,-230,-165,767,817.56591796875,20.254674911499023,54.34096145629883,-16.339174669857908,-11.643325617770714,72,-145,-1009,9,8,6,7,
32,26,-255,-75,754,799.4785766601562,19.416532516479492,73.6073226928711,-18.599914122988107,-5.38289777756879,316,192,-782,7,7,8,7,
33,26,-231,-108,692,737.48828125,20.22663688659668,64.93898010253906,-18.253710333149655,-8.420849072435914,-71,-154,128,12,7,7,10,
34,26,-208,-106,746,781.6751098632812,17.374784469604492,62.99245834350586,-15.432040024220253,-7.793675447829917,-137,239,104,6,6,6,8,
35,28,-230,-131,740,785.9141235351562,19.679529190063477,60.332130432128906,-17.016844735679772,-9.595126552096787,-177,-52,1465,8,7,6,7,
36,28,-223,-132,753,796.3428955078125,18.98839569091797,59.37396240234375,-16.26200272239148,-9.5412560997613,-8,-176,126,8,5,9,8,
37,28,-255,-84,705,754.3911743164062,20.84585952758789,71.76432037353516,-19.756344501424433,-6.39303187535292,99,-174,-96,7,6,9,8,
38,28,-224,-119,724,767.14599609375,19.305400848388672,62.01704788208008,-16.977212996287715,-8.92377943526205,-93,-197,-249,7,9,7,8,
39,30,-244,-146,692,748.1417236328125,22.335908889770508,59.101783752441406,-19.03474226610002,-11.253497836770837,457,-441,-825,8,6,10,8,
40,30,-221,-52,732,766.4000244140625,17.229516983032227,76.75643920898438,-16.759866431058835,-3.890489497778614,71,-313,228,12,9,10,11,
41,30,-207,-96,740,774.38037109375,17.13489532470703,65.11624145507812,-15.504287543543292,-7.121283113270833,-88,-50,201,11,6,9,9,
42,30,-211,-107,717,755.0225219726562,18.258596420288086,63.1065788269043,-16.22808972524201,-8.14725017671609,-115,-528,293,13,10,10,9,
43,30,-247,-91,693,741.3089599609375,20.796796798706055,69.77188873291016,-19.462777692465295,-7.051176284873066,140,-93,1348,10,11,9,5,
44,38,-230,-114,723,767.218994140625,19.545394897460938,63.63115310668945,-17.444631548127962,-8.545142895334916,48,-214,-184,8,14,9,7,
45,38,-211,-70,746,778.4195556640625,16.5919132232666,71.64335632324219,-15.727474804240735,-5.159338360411089,-40,-17,27,5,6,6,8,
46,38,-225,-123,768,809.677734375,18.461397171020508,61.33253479003906,-16.134214897032457,-8.737763167923843,-24,-59,61,10,7,12,9,
47,38,-233,-160,771,821.1759643554688,20.1307315826416,55.51911926269531,-16.483512534686465,-11.23552430674423,-142,-187,188,7,6,6,8,
48,38,-225,-122,725,768.8524169921875,19.442514419555664,61.52897644042969,-17.01631187379837,-9.130173982223672,-191,-59,-237,10,6,6,8,
49,42,-246,-93,742,787.2286987304688,19.51413917541504,69.2876968383789,-18.209270087158767,-6.784534527276624,52,-97,-479,5,5,8,10,
50,42,-243,-82,736,779.4029541015625,19.20903205871582,71.34990692138672,-18.166359485830274,-6.039192714932249,-85,-236,1231,7,7,9,11,
51,42,-222,-157,805,849.6810913085938,18.661405563354492,54.72808074951172,-15.145699282331055,-10.648026472925292,-4,81,-239,9,9,7,9,
52,42,-205,-81,755,786.5182495117188,16.272994995117188,68.4366455078125,-15.108182436064425,-5.911116576896293,-455,-306,-549,10,12,10,7,
53,42,-247,-84,726,771.4537963867188,19.764150619506836,71.214599609375,-18.67349062959662,-6.2510634248656025,9,-121,-344,5,6,6,5,
54,43,-264,-105,718,772.1690063476562,21.58681297302246,68.3076400756836,-19.99231234371329,-7.815326520252707,203,59,455,6,7,8,8,
55,43,-219,-115,696,738.6487426757812,19.563112258911133,62.29193115234375,-17.24674559425574,-8.956798391761557,-43,165,-79,8,9,12,11,
56,43,-243,-127,756,804.185302734375,19.932628631591797,62.403446197509766,-17.587934794592766,-9.086406727843432,-5,-579,315,26,24,21,25,
57,43,-216,-116,774,811.9039306640625,17.5743350982666,61.759063720703125,-15.428837771739826,-8.21418920475,-13,-698,718,18,17,14,14,
58,43,-221,-95,760,797.1611938476562,17.561370849609375,66.73551940917969,-16.095175973811195,-6.844369723380391,-43,68,17,11,8,8,9,
59,47,-222,-98,757,794.9446411132812,17.77195167541504,66.17799377441406,-16.2163261347856,-7.081382369834639,-46,256,-539,7,11,9,11,
60,47,-228,-135,734,780.3621215820312,19.84722137451172,59.36644744873047,-16.988038848214153,-9.962094440724437,8,-254,352,7,5,6,6,
61,47,-216,-129,751,792.021484375,18.519012451171875,59.14984130859375,-15.82617996707515,-9.373774715581279,-7,-541,-106,9,7,6,7,
62,47,-216,-64,755,787.89404296875,16.612247467041016,73.49249267578125,-15.911279325598478,-4.65922356198425,-55,132,97,9,6,6,5,
63,47,-214,-125,745,785.1407470703125,18.398168563842773,59.70673751831055,-15.816813201785205,-9.160877796034494,-10,57,397,7,8,6,8,
64,46,-207,-144,786,825.4580688476562,17.784894943237305,55.17182159423828,-14.523073142447744,-10.046571500593556,-10,361,-60,7,6,8,10,
65,46,-231,-114,741,784.4985961914062,19.16721534729004,63.72993469238281,-17.124895954289663,-8.35556418028843,66,-145,-602,5,6,8,5,
66,46,-222,-107,728,768.5811767578125,18.699750900268555,64.26335906982422,-16.788756232084335,-8.002572823994237,9,-389,135,10,7,7,9,
67,46,-227,-104,714,756.4000244140625,19.272930145263672,65.38175201416016,-17.463955041904978,-7.90282508383613,106,-162,399,8,7,7,6,
68,46,-222,-103,726,766.1390380859375,18.626564025878906,65.10700988769531,-16.843866069200292,-7.726259433397106,33,-302,307,12,10,7,8,
69,42,-218,-93,737,774.1718139648438,17.824901580810547,66.89330291748047,-16.355197744589773,-6.899511358327357,-70,-285,46,8,6,5,7,
70,42,-214,-75,700,735.8131713867188,17.947383880615234,70.6828842163086,-16.90793502942359,-5.850207001672043,-58,-64,188,8,10,8,9,
71,42,-225,-126,732,776.0960083007812,19.404878616333008,60.74766159057617,-16.85272289237254,-9.343385970711102,14,-230,-520,8,10,9,8,
72,42,-228,-105,711,754.00927734375,19.443307876586914,65.26930236816406,-17.600820736569762,-8.004772160575726,65,48,-208,10,8,9,10,
73,42,-201,-105,711,746.288818359375,17.687917709350586,62.41449737548828,-15.624563888204227,-8.088134269792599,-68,-192,277,9,7,9,10,
74,49,-228,-75,759,796.0465087890625,17.5463924407959,71.788330078125,-16.64347459075918,-5.406174736477741,-12,-60,274,5,4,4,5,
75,49,-221,-94,731,769.4400634765625,18.185134887695312,66.95470428466797,-16.691705398591253,-7.017169104078009,-32,-78,220,6,5,4,5,
76,49,-220,-114,757,796.5205688476562,18.12224769592285,62.604164123535156,-16.033615564961078,-8.228571410324038,-63,175,338,6,7,6,6,
77,49,-236,-117,730,776.0702514648438,19.839202880859375,63.62607192993164,-17.70379682259089,-8.67094626158235,21,-134,861,7,8,8,9,
78,49,-232,-114,747,790.4612426757812,19.085832595825195,63.828033447265625,-17.067583836232675,-8.292090103568821,77,-504,-314,9,13,8,8,
79,51,-221,-84,722,759.7243041992188,18.129384994506836,69.18540954589844,-16.911546121635432,-6.347968586744404,-16,-124,-191,8,6,5,7,
80,51,-223,-131,746,789.5606079101562,19.118850708007812,59.564598083496094,-16.40562040893142,-9.55039624243825,-119,-97,199,9,7,7,8,
81,51,-221,-143,756,800.51611328125,19.195404052734375,57.09113693237305,-16.025902870405563,-10.290248644498883,5,-110,-208,7,6,8,7,
82,51,-218,-72,690,727.1918334960938,18.401611328125,71.71969604492188,-17.444590131491648,-5.6822228570553035,35,51,554,9,8,9,12,
83,53,-222,-97,734,772.9482421875,18.264039993286133,66.39435577392578,-16.691114899894632,-7.20925705451859,-28,-178,676,7,8,8,9,
84,53,-228,-115,715,759.2324829101562,19.651988983154297,63.23080825805664,-17.47581876315443,-8.712052454603947,-6,-390,324,10,8,7,8,
85,53,-230,-147,750,798.12841796875,19.996971130371094,57.41249084472656,-16.748677809264137,-10.613379843366086,50,37,-193,7,7,7,7,
86,53,-213,-161,768,813.0891723632812,19.16835594177246,52.9117546081543,-15.186624238231593,-11.420628648369439,98,106,-353,8,9,7,8,
87,53,-234,-71,696,737.7079467773438,19.3564510345459,73.1180648803711,-18.493598570411223,-5.522926789902406,40,-358,163,5,9,7,8,
88,56,-225,-99,669,712.7320556640625,20.173263549804688,66.24715423583984,-18.40227130382884,-7.984322045007693,-91,-409,149,6,9,9,10,
89,56,-243,-85,719,763.6982421875,19.69779396057129,70.71723175048828,-18.55340859454549,-6.390289432822831,6,-263,1577,9,12,7,6,
90,56,-231,-120,728,773.1397094726562,19.673341751098633,62.5455322265625,-17.38444430550089,-8.929049785041954,-68,-805,-19,7,10,10,9,
91,56,-225,-51,735,770.3577270507812,17.424299240112305,77.2257308959961,-16.982050902512608,-3.795929404938457,-68,-179,238,9,6,7,6,
92,56,-216,-122,741,781.4224243164062,18.507448196411133,60.53807830810547,-16.04659483829617,-8.982079898439226,87,50,-19,6,7,9,7,
93,59,-223,-122,693,738.147705078125,20.140867233276367,61.31409454345703,-17.584232531446432,-9.513418072223073,-62,-331,-351,7,9,9,7,
94,59,-233,-87,703,745.698974609375,19.48106575012207,69.5215835571289,-18.207454449624823,-6.699903133864418,-25,-563,519,8,10,8,6,
95,59,-225,-93,738,777.12158203125,18.255352020263672,67.53974914550781,-16.829818337412604,-6.873195611955345,-63,-648,3,7,8,12,12,
96,59,-221,-60,755,788.9651489257812,16.870981216430664,74.80760955810547,-16.2669948846239,-4.361496979075184,83,-202,1836,8,8,14,14,
97,59,-208,-149,789,829.44921875,17.96500587463379,54.380523681640625,-14.523011584469874,-10.348633050584432,156,-65,574,8,9,10,9,
98,65,-202,-118,786,820.0756225585938,16.572616577148438,59.70475769042969,-14.259781275460385,-8.272958897823766,49,445,-212,6,8,10,8,
99,65,-222,-128,761,802.987548828125,18.60823631286621,60.029720306396484,-16.04948968886829,-9.172345377537757,-66,-254,-869,9,9,9,9,
100,65,-222,-99,706,746.6732788085938,18.996366500854492,65.96234893798828,-17.296634494649943,-7.61917499790339,95,69,-791,7,10,10,6,
101,65,-240,-120,752,798.4384765625,19.63530921936035,63.431514739990234,-17.492846087603127,-8.64392748125005,-2,-263,990,10,9,12,14,
102,65,-235,-201,822,878.2425537109375,20.614137649536133,49.455142974853516,-15.520303535576456,-13.230326841948571,32,15,-431,7,11,15,12,
103,65,-227,-114,768,808.9183959960938,18.299633026123047,63.33064270019531,-16.297308743431042,-8.101602512188187,-61,648,731,6,11,11,8,
104,65,-225,-47,667,705.494873046875,19.012487411499023,78.19820404052734,-18.597930288263512,-3.819868459010727,46,-65,149,20,12,11,9,
105,65,-223,-97,708,748.6000366210938,18.95441436767578,66.48869323730469,-17.330878582413174,-7.445045587565288,-130,-174,468,8,9,9,6,
106,65,-216,-129,726,768.3573608398438,19.111221313476562,59.14984130859375,-16.32701338399457,-9.665198590188318,9,-395,-54,9,8,8,6,
107,65,-223,-85,717,755.6738891601562,18.407690048217773,69.131591796875,-17.163584733786564,-6.458434115288787,41,-581,-724,9,5,6,6,
108,68,-230,-78,735,774.0859375,18.283000946044922,71.263427734375,-17.284984060407922,-5.783167208870433,-69,-55,-1043,7,7,8,5,
109,68,-212,-139,761,802.1134643554688,18.421911239624023,56.745094299316406,-15.3254674928942,-9.979289576593507,-30,-43,326,7,6,6,7,
110,68,-213,-147,730,774.5179443359375,19.518455505371094,55.38517761230469,-15.962596888102086,-10.940848937454193,-45,-210,848,7,8,8,8,
111,68,-233,-94,726,768.2454223632812,19.087116241455078,68.0259017944336,-17.655225868768166,-7.028136102489269,-3,-309,816,9,7,7,8,
112,68,-218,-99,748,785.3846435546875,17.74715805053711,65.57247924804688,-16.115288194359582,-7.241562831459004,-84,-107,600,5,4,5,5,
113,71,-213,-97,753,788.5347290039062,17.26411247253418,65.51214599609375,-15.671483307550815,-7.0660219270525895,-30,-106,-477,7,6,6,6,
114,71,-209,-159,761,805.0360107421875,19.036455154418945,52.733619689941406,-15.047261041577393,-11.391194754423388,16,-58,-797,6,5,5,6,
115,71,-241,-124,714,763.7100219726562,20.784379959106445,62.769691467285156,-18.39491354811548,-9.344212903889783,110,-155,-492,7,7,6,5,
116,71,-216,-66,707,742.2001342773438,17.714481353759766,73.00601959228516,-16.919429167465708,-5.101754948526328,-76,-228,453,7,6,7,9,
117,71,-222,-76,751,786.8043212890625,17.349184036254883,71.09854125976562,-16.388805886358387,-5.543029262978266,-37,-66,628,6,7,7,5,
118,75,-216,-117,749,788.2550048828125,18.156003952026367,61.55358123779297,-15.903799098008939,-8.53590264288726,91,171,923,7,7,7,7,
119,75,-158,-157,783,814.0651245117188,15.8772554397583,45.17790985107422,-11.191432745216888,-11.119694985550561,-98,-141,579,9,8,10,10,
120,75,-210,-81,729,762.9561157226562,17.15601348876953,68.90438842773438,-15.976626819872727,-6.09434921771907,44,24,-288,11,8,12,8,
121,75,-215,-96,748,784.1842651367188,17.471073150634766,65.93531799316406,-15.912572385833448,-7.031800045693302,42,-289,-935,7,9,8,7,
122,77,-227,-130,736,781.10498046875,19.564170837402344,60.197242736816406,-16.894715461098386,-9.580368010809336,-35,-146,-981,8,7,8,6,
123,77,-225,-119,716,759.8960571289062,19.567716598510742,62.12264633178711,-17.223097916320825,-9.00962412693133,-2,-272,543,9,8,8,7,
124,77,-220,-72,717,753.4407958984375,17.890451431274414,71.87494659423828,-16.977356929420573,-5.483643735754288,-30,-227,689,10,11,9,9,
125,77,-218,-72,735,770.0214233398438,17.344402313232422,71.71969604492188,-16.445847789343098,-5.36521579264994,-13,-59,624,8,8,6,7,
126,77,-243,-85,694,740.2094116210938,20.35013771057129,70.71723175048828,-19.16474344971048,-6.5939562616022105,80,-6,1146,11,8,8,9,
127,81,-220,-107,735,774.6444091796875,18.407615661621094,64.05997467041016,-16.499158697822967,-7.939529667928132,-18,-215,-350,12,14,10,8,
128,81,-219,-87,704,742.39208984375,18.504688262939453,68.33074951171875,-17.157079920160744,-6.729884971681219,17,320,-825,8,10,7,7,
129,81,-218,-60,753,786.21435546875,16.711471557617188,74.6084213256836,-16.097818617055704,-4.37678663354727,-64,53,-266,7,7,7,8,
130,81,-231,-109,720,763.9646606445312,19.53042221069336,64.73579406738281,-17.600007046724322,-8.20276838657464,-33,-105,124,7,7,8,8,
131,81,-240,-162,767,819.837158203125,20.680509567260742,55.97698974609375,-17.022130407038464,-11.396660902061472,77,-379,1187,8,9,7,7,
132,84,-173,-189,801,840.982177734375,17.736215591430664,42.465179443359375,-11.871173463465286,-12.987426688736587,-213,214,859,10,11,15,13,
133,84,-250,-106,736,784.4947509765625,20.249244689941406,67.01972198486328,-18.58290111292534,-7.765490445887888,-11,-1022,404,8,12,8,10,
134,84,-282,-71,670,730.3869018554688,23.460369110107422,75.8651123046875,-22.711844557062513,-5.578460708709375,235,-357,-375,21,13,10,11,
135,84,-222,-99,737,776.0502319335938,18.251239776611328,65.96234893798828,-16.622456355904085,-7.329139950128936,32,842,-821,6,7,7,7,
136,84,-224,-109,734,775.1212768554688,18.744613647460938,64.04869079589844,-16.797320951750034,-8.083907134031705,96,1298,-327,5,6,7,6,
137,90,-232,-81,727,767.4073486328125,18.673686981201172,70.75074768066406,-17.596798878609345,-6.058867117959524,-269,1525,644,29,11,18,15,
138,90,-222,-81,739,775.8646850585938,17.730968475341797,69.95150756835938,-16.626547719204265,-5.99257887146604,-95,156,933,6,6,9,9,
139,90,-226,-114,720,763.1985473632812,19.367639541625977,63.22904586791992,-17.224839356185644,-8.590497509835153,-94,-14,694,13,11,10,10,
140,90,-223,-108,714,755.7704467773438,19.1359806060791,64.15545654296875,-17.161322976834906,-8.21572233998496,-217,-314,25,9,7,9,7,
141,90,-208,-142,732,774.1137084960938,18.984004974365234,55.67527770996094,-15.58658984442961,-10.569937473312581,-46,184,41,6,9,7,9,
142,90,-244,-41,720,761.3258056640625,18.962665557861328,80.45860290527344,-18.692774213139963,-3.0870671628595243,94,72,-365,8,13,9,9,
143,90,-229,-120,711,756.5460815429688,19.98038673400879,62.34120559692383,-17.6193269506187,-9.126548800306843,-39,-93,-424,4,8,8,7,
144,90,-234,-116,714,760.2683715820312,20.089967727661133,63.62773895263672,-17.9258581509107,-8.776337729352155,-101,-103,-319,6,16,9,8,
145,90,-221,-122,700,744.1270141601562,19.828548431396484,61.0962028503418,-17.277043669905876,-9.436272737091091,-107,-356,1037,8,11,11,8,
146,90,-234,-76,730,770.3453979492188,18.62329864501953,72.00373077392578,-17.68356936436114,-5.661842516383362,-50,-145,649,6,7,7,4,
147,95,-218,-111,735,774.641845703125,18.407041549682617,63.01252365112305,-16.344995373902407,-8.23838664588651,-108,-66,-158,6,6,7,8,
148,95,-237,-157,753,804.8770141601562,20.681316375732422,56.47398376464844,-17.124855220678636,-11.248278767819116,15,-227,206,5,6,6,5,
149,95,-257,-126,738,791.5610961914062,21.196224212646484,63.87913513183594,-18.945878074855123,-9.159252499675114,71,-191,-337,6,10,7,6,
150,95,-198,-104,753,785.511962890625,16.539987564086914,62.28571701049805,-14.599736992317563,-7.608170231904394,-170,-113,-608,6,10,7,11,
151,95,-212,-135,741,782.4640502929688,18.733943939208984,57.50770568847656,-15.720148244112249,-9.935061048887743,4,-323,-97,6,4,7,6,
152,99,-197,-153,786,824.629638671875,17.604585647583008,52.16153335571289,-13.821339309811826,-10.692491436467812,272,-46,623,8,7,8,9,
153,99,-217,-129,770,810.3270874023438,18.14984893798828,59.266231536865234,-15.53298520784799,-9.16017268172029,292,-194,1287,7,8,7,7,
154,99,-217,-96,719,757.143310546875,18.261978149414062,66.1322250366211,-16.654727342349723,-7.2842750408185335,48,-124,73,6,12,7,6,
155,99,-204,-99,731,765.361328125,17.231531143188477,64.10955047607422,-15.458525393893742,-7.4320713588355645,115,-138,-488,8,7,9,7,
156,99,-231,-122,746,790.4182739257812,19.297361373901367,62.15626525878906,-16.992728693000217,-8.879022870951559,15,-389,-389,8,7,7,8,
157,101,-220,-162,799,844.419921875,18.875545501708984,53.62968444824219,-15.10174319152443,-11.060632195612355,-11,-57,205,10,7,7,6,
158,101,-210,-111,686,725.9593505859375,19.096582412719727,62.13688278198242,-16.81440004110445,-8.795088326601826,-132,-128,733,10,9,8,7,
159,101,-204,-84,696,730.1287841796875,17.585378646850586,67.61654663085938,-16.224563659311304,-6.606405227285992,-213,226,756,12,9,9,8,
160,101,-204,-151,729,771.9183959960938,19.1937313079834,53.48755645751953,-15.323975197303563,-11.28074204499954,-162,-262,588,8,13,8,8,
161,106,-219,-84,695,733.5134887695312,18.64702796936035,69.01182556152344,-17.371315644000155,-6.575785917120016,-139,-215,208,9,8,8,9,
162,106,-206,-88,675,711.19970703125,18.35708999633789,66.86524200439453,-16.83708817537427,-7.107685653985985,-137,-86,-180,8,9,14,13,
163,106,-204,-109,768,802.0729370117188,16.75826644897461,61.880306243896484,-14.734537352882572,-7.810542262981376,-141,-60,19,7,14,9,9,
164,106,-201,-149,771,810.5819091796875,17.977094650268555,53.446956634521484,-14.357420338070945,-10.592259974984046,-203,-139,181,9,16,11,9,
165,106,-219,-138,716,761.354736328125,19.874216079711914,57.77985763549805,-16.717027711524818,-10.442918382460029,-219,-327,720,7,8,7,5,
166,106,-228,-93,724,764.72802734375,18.781442642211914,67.806396484375,-17.346233601731544,-6.985136634694054,34,-240,397,10,6,9,8,
167,106,-226,-80,733,771.2100830078125,18.109195709228516,70.50370788574219,-17.04040145402154,-5.9541789594769465,18,-290,-352,10,10,6,7,
168,106,-199,-132,754,790.9114990234375,17.57135581970215,56.43938064575195,-14.572711167874056,-9.607397237244061,-313,-267,193,8,14,11,9,
169,106,-229,-146,788,833.4872436523438,19.01430320739746,57.47664260864258,-15.94707184116015,-10.088414214623636,-193,-158,-93,9,17,11,11,
170,106,-215,-110,782,818.4430541992188,17.160154342651367,62.900997161865234,-15.229969417238243,-7.724014985273266,-100,47,394,11,15,11,8,
171,111,-261,-64,729,776.9542846679688,20.23340606689453,76.21924591064453,-19.628923628396414,-4.724974716901268,-66,-12,178,5,12,5,8,
172,111,-238,-97,716,760.729248046875,19.74349594116211,67.82270050048828,-18.23153302843549,-7.325683722863132,-3,-143,-447,12,13,8,6,
173,111,-213,-154,758,802.2774047851562,19.122148513793945,54.12917709350586,-15.396320888003123,-11.066813736838464,-5,-70,62,6,11,7,7,
174,111,-234,-155,810,857.2520141601562,19.11002540588379,56.47612762451172,-15.840792431242967,-10.41696156727592,269,-162,1140,9,12,12,8,
175,111,-252,-84,729,775.88720703125,20.0185489654541,71.56185150146484,-18.9528203082589,-6.215203739920863,200,133,430,10,10,9,9,
176,114,-231,-81,722,762.36865234375,18.7268123626709,70.67359161376953,-17.63806016159529,-6.099062810584101,-43,-151,24,7,6,8,6,
177,114,-221,-85,732,769.3438720703125,17.922889709472656,68.95921325683594,-16.693853240128313,-6.3432026417549485,72,241,-405,7,14,9,8,
178,114,-207,-138,735,775.962646484375,18.697845458984375,56.30628204345703,-15.47188105148794,-10.244181685928723,77,-313,-392,6,7,9,8,
179,114,-219,-105,726,765.546875,18.4946346282959,64.381103515625,-16.622818928474732,-7.883358906787733,-72,-159,1421,7,8,8,7,
180,114,-222,-45,750,783.4596557617188,16.803197860717773,78.53825378417969,-16.4607572297601,-3.2927412500347057,24,-168,724,9,10,9,5,
181,116,-216,-86,704,741.39599609375,18.2733154296875,68.28681945800781,-16.93833383959015,-6.661156410113856,-61,-54,-647,8,6,7,6,
182,116,-215,-118,721,761.5707397460938,18.78397560119629,61.236881256103516,-16.39819673962873,-8.913486193028177,-8,-198,-40,8,9,6,7,
183,116,-198,-111,727,761.61279296875,17.337783813476562,60.721229553222656,-15.068557085899098,-8.380327651916922,-164,-267,286,11,9,8,8,
184,116,-209,-62,737,768.5662231445312,16.47588539123535,73.47383117675781,-15.779439335038365,-4.627060796821911,-125,-39,-101,7,9,8,10,
185,116,-228,-96,734,774.5682373046875,18.623695373535156,67.16301727294922,-17.119015922835846,-7.119546919827637,-191,-31,678,7,11,9,9,
186,119,-241,-138,769,817.6099243164062,19.854429244995117,60.20041275024414,-17.143241570696112,-9.71716312773128,-219,78,401,5,8,8,6,
187,119,-216,-108,744,782.2122192382812,17.980812072753906,63.431514739990234,-16.029955378196366,-7.936177492197672,-68,92,433,8,7,9,8,
188,119,-243,-89,730,774.5127563476562,19.517375946044922,69.88124084472656,-18.28510594925566,-6.598489115231995,146,-85,297,8,9,8,9,
189,119,-232,-93,747,787.706787109375,18.498117446899414,68.15272521972656,-17.129106359061865,-6.7803971769482185,-114,-178,-354,7,7,8,8,
190,119,-216,-69,735,769.1826782226562,17.143247604370117,72.2810287475586,-16.309004962913182,-5.146671147974488,-50,-155,-12,6,7,8,8,
191,126,-204,-198,825,872.608154296875,19.011455535888672,45.851139068603516,-13.519831269959473,-13.11498135305044,-245,153,-7,8,11,12,11,
192,126,-273,-87,734,787.94287109375,21.321882247924805,72.32071685791016,-20.271666457590605,-6.339186781753856,22,24,894,9,7,10,11,
193,126,-227,-111,716,759.2799072265625,19.436504364013672,63.93854904174805,-17.39559775221345,-8.406261750705285,-74,-168,417,7,6,6,7,
194,126,-211,-91,714,750.0653076171875,17.83761978149414,66.66710662841797,-16.338335263184682,-6.968449260204618,-61,-319,-561,11,7,6,6,
195,126,-213,-90,737,772.4234619140625,17.417098999023438,67.09090423583984,-16.007040757500118,-6.691096356964851,-95,-90,-438,9,6,6,7,
196,123,-200,-98,729,762.2630615234375,16.98648452758789,63.891719818115234,-15.211128446975781,-7.386650297495818,-272,-183,135,10,9,11,11,
197,123,-251,-80,720,766.6818237304688,20.094995498657227,72.31844329833984,-19.110122395205064,-5.989474592578417,178,8,471,8,12,13,13,
198,123,-229,-144,722,771.0130004882812,20.53746795654297,57.833858489990234,-17.278216878682404,-10.764186501318306,16,-158,1053,6,6,9,7,
199,123,-234,-107,709,754.2453002929688,19.94428253173828,65.42366790771484,-18.073928922400324,-8.155702492561105,128,-354,539,6,6,9,8,
200,123,-222,-118,693,737.1953735351562,19.938093185424805,62.00446701049805,-17.52616764177453,-9.210733996382062,-140,-368,30,8,11,8,7,
201,129,-220,-60,726,760.970458984375,17.43525505065918,74.74177551269531,-16.80435318663596,-4.522276539843041,-93,-449,342,9,9,9,8,
202,129,-226,-78,760,796.71826171875,17.460445404052734,70.95555114746094,-16.478984158291773,-5.6183485195396115,-110,105,-4,9,9,10,11,
203,129,-247,-143,757,809.0160522460938,20.65568733215332,59.927879333496094,-17.776763448743054,-10.180974618447106,-120,-155,-656,7,7,7,8,
204,129,-222,-104,740,779.5511474609375,18.327289581298828,64.8949966430664,-16.54565431622351,-7.666693918846077,-82,222,-804,7,7,10,8,
205,132,-222,-61,746,780.71826171875,17.148958206176758,74.63263702392578,-16.520210393821767,-4.481268883131176,-109,-19,-334,6,7,7,9,
206,132,-222,-71,750,785.382080078125,17.261516571044922,72.26151275634766,-16.4193230366221,-5.186726203165441,-73,-57,1411,11,6,5,10,
207,132,-206,-148,765,805.9559326171875,18.342008590698242,54.301055908203125,-14.808968663466624,-10.581435814647838,-77,-120,781,10,7,9,7,
208,132,-221,-137,780,822.1983032226562,18.43410301208496,58.201236724853516,-15.592373439333828,-9.591732758616594,-196,-28,58,9,5,6,7,
209,132,-238,-83,711,754.356689453125,19.517908096313477,70.7710952758789,-18.391038395732778,-6.3169023876226875,-9,-20,-531,9,8,7,7,
210,138,-252,-76,686,734.7625732421875,20.989242553710938,73.21420288085938,-20.05780077554449,-5.936994839556712,109,105,-553,7,7,8,8,
211,138,-213,-144,737,780.56005859375,19.229686737060547,55.93543243408203,-15.835774669960834,-10.630987138786,-36,-176,-703,8,5,10,8,
212,138,-222,-100,744,782.8281860351562,18.11919403076172,65.74742889404297,-16.47441272838399,-7.339127541839295,-167,-211,230,10,7,7,12,
213,138,-210,-126,708,749.1595458984375,19.078611373901367,59.03267288208008,-16.27895372741707,-9.682509938097768,-45,9,912,11,9,10,11,
214,138,-249,-54,715,759.0401611328125,19.61130142211914,77.76087188720703,-19.15021081198489,-4.079610038026472,-7,5,879,9,8,7,6,
215,140,-240,-167,687,746.631103515625,23.052471160888672,55.16482925415039,-18.75026729612474,-12.924762153911256,177,-274,24,8,10,7,8,
216,140,-177,-144,697,733.39892578125,18.12482261657715,50.865779876708984,-13.965762550335496,-11.323368075208263,90,-502,-1417,11,10,12,11,
217,140,-216,-89,703,740.8009033203125,18.380292892456055,67.60321044921875,-16.9523511460295,-6.900196288554359,-256,-159,-222,6,8,7,7,
218,140,-225,-67,744,780.1602172851562,17.51056671142578,73.41448974609375,-16.762327627125874,-4.926618307049187,-106,80,614,7,6,6,8,
219,140,-223,-104,756,795.0352172851562,18.026636123657227,64.99378967285156,-16.289494503235606,-7.516506503556673,-24,317,-288,11,10,10,10,
220,136,-228,-148,759,806.20654296875,19.702083587646484,57.00784683227539,-16.427743525832682,-10.5781088694447,-11,-72,1302,8,10,11,14,
221,136,-210,-109,714,752.1815185546875,18.331886291503906,62.5650634765625,-16.21174427339936,-8.332173740942642,-125,-454,894,7,8,12,7,
222,136,-218,-66,714,749.450439453125,17.69097137451172,73.15303802490234,-16.910635584785233,-5.0522704356184365,-180,-406,-239,6,5,7,6,
223,136,-228,-75,765,801.769287109375,17.417112350463867,71.788330078125,-16.52125869735944,-5.367473232229664,-39,397,-552,7,6,7,9,
224,136,-229,-96,808,845.29345703125,17.0806827545166,67.2525634765625,-15.718533754308401,-6.521153349122106,-346,169,179,7,6,10,9,
225,148,-222,-142,768,811.9556884765625,18.936935424804688,57.391780853271484,-15.867517828915851,-10.072047144460521,-286,-168,-707,6,5,9,8,
226,148,-236,-49,779,815.4373168945312,17.190629959106445,78.26750183105469,-16.822951740942855,-3.44500491413278,-228,417,-1566,6,6,10,7,
227,148,-197,-72,670,702.0634155273438,17.380706787109375,69.92029571533203,-16.29610401013098,-5.8863087532977225,-223,-215,1391,18,8,12,11,
228,148,-216,-167,734,783.1353759765625,20.40186309814453,52.28689956665039,-16.01055213159556,-12.312608048003007,-45,-263,877,14,7,11,11,
229,148,-220,-103,741,779.80126953125,18.148271560668945,64.90846252441406,-16.386962890597427,-7.590089516757515,-157,-153,385,9,7,6,8,
230,148,-204,-108,715,751.33544921875,17.889591217041016,62.09925842285156,-15.754529026087143,-8.26455632627166,-118,18,-358,9,7,7,7,
231,148,-228,-68,716,754.495849609375,18.379358291625977,73.38987731933594,-17.58909928780431,-5.170879171553026,16,-122,-994,9,19,11,9,
232,148,-227,-112,707,750.9473876953125,19.696762084960938,63.735206604003906,-17.594886504958875,-8.577377444709846,45,-94,-343,6,5,7,7,
233,148,-209,-117,701,740.790771484375,18.862369537353516,60.75599670410156,-16.387426883393537,-9.087307626473608,-19,-243,-546,7,6,7,8,
234,148,-210,-77,701,735.8192749023438,17.694454193115234,69.8604507446289,-16.58253087102972,-6.006728944215382,-124,-352,1215,11,7,10,11,
235,153,-236,-76,726,767.1688232421875,18.8533935546875,72.14649963378906,-17.916135887158624,-5.685363152518399,28,-111,734,11,9,12,12,
236,153,-206,-79,752,783.697021484375,16.348941802978516,69.01514434814453,-15.239635671552037,-5.785485438713216,-73,98,850,7,8,10,12,
237,153,-242,-139,733,784.3302612304688,20.841543197631836,60.124267578125,-17.971476017922875,-10.20794757279512,236,-114,-453,10,8,8,11,
238,153,-215,-116,714,754.6370239257812,18.88641929626465,61.64809799194336,-16.553181617601766,-8.842352894239868,43,-238,-1594,9,7,9,7,
239,153,-242,-73,717,760.2512817382812,19.4174747467041,73.21076202392578,-18.561102736112353,-5.510080833897306,73,-209,533,6,7,10,10,
240,156,-223,-116,771,810.94140625,18.055208206176758,62.514015197753906,-15.96136066387657,-8.224006101946012,-110,-116,-373,11,6,9,9,
241,156,-202,-112,758,792.4089965820312,16.9444637298584,60.990074157714844,-14.76877763937985,-8.125460446884722,-92,-32,1102,6,5,8,6,
242,156,-212,-147,757,799.751220703125,18.81653594970703,55.2590217590332,-15.371851267122777,-10.591595257605112,-162,35,911,6,5,6,8,
243,156,-236,-73,721,762.1456298828125,18.910625457763672,72.80884552001953,-18.038265466060288,-5.49634281585696,-42,229,-391,9,6,7,8,
244,163,-252,-168,744,803.2832641601562,22.148176193237305,56.30628204345703,-18.28310604539332,-12.072056445395736,27,-49,537,14,10,13,11,
245,163,-179,-120,807,835.2783813476562,14.949203491210938,56.1588020324707,-12.374451828744295,-8.259961161126057,-595,-103,-414,11,7,9,9,
246,163,-227,-93,762,800.5136108398438,17.842891693115234,67.71818542480469,-16.473267350168992,-6.671425967734161,-298,327,313,6,4,7,7,
247,163,-208,-108,711,748.6314086914062,18.24167823791504,62.55681610107422,-16.131351033302515,-8.294617854698076,-145,262,-1190,18,9,8,11,
248,163,-245,-90,755,798.8428955078125,19.06845474243164,69.82609558105469,-17.860083320653754,-6.468845918745022,-94,-110,-713,9,8,9,9,
249,164,-224,-163,667,722.2423706054688,22.5528621673584,53.953704833984375,-18.067981508700548,-13.043221911855232,-72,92,829,13,10,10,12,
250,164,-240,-93,721,765.5651245117188,19.6439151763916,68.81536865234375,-18.269915454883243,-6.977460849904506,27,-46,-73,14,9,9,10,
251,164,-221,-83,747,783.4149780273438,17.535797119140625,69.41228485107422,-16.385475636408408,-6.081695828381408,-248,-192,617,7,8,8,10,
252,164,-224,-76,711,749.3150024414062,18.399595260620117,71.25545501708984,-17.39392958721706,-5.821289867865419,-81,15,525,9,8,9,7,
253,164,-240,-113,729,775.76416015625,19.99357795715332,64.78398895263672,-18.021411420895728,-8.375664085488882,-56,-15,-943,7,6,8,7,
254,166,-232,-154,746,796.2763061523438,20.467086791992188,56.42041778564453,-16.93916367106006,-11.151282698134091,96,-258,184,7,7,6,6,
255,166,-241,-129,688,740.3148193359375,21.666688919067383,61.83772277832031,-18.998123730854008,-10.035027218681382,182,-413,34,14,8,8,9,
256,166,-210,-56,709,741.5639038085938,17.040361404418945,75.06548309326172,-16.450406363311483,-4.330875768247021,-37,-285,691,9,8,11,9,
257,166,-222,-84,699,738.201171875,18.753923416137695,69.27117919921875,-17.501515366786673,-6.53384577599108,190,110,881,12,10,12,12,
258,166,-205,-105,741,775.9710083007812,17.264726638793945,62.875247955322266,-15.318538664818057,-7.776796710315043,-61,-50,-409,10,7,12,12,
259,169,-199,-116,716,752.1389770507812,17.831130981445312,59.7579231262207,-15.341924890947451,-8.871957232253546,-191,-164,-223,10,8,6,6,
260,169,-225,-70,750,786.1456909179688,17.439706802368164,72.71533203125,-16.630980534924657,-5.108497781414142,34,450,288,8,7,8,7,
261,169,-256,-71,727,774.0194091796875,20.071456909179688,74.49586486816406,-19.313761757996346,-5.263081252224511,521,-216,-776,13,13,13,11,
262,169,-201,-114,772,805.841796875,16.661521911621094,60.43611526489258,-14.443702926705924,-8.132742576083995,75,219,919,14,13,10,11,
263,169,-246,-146,748,800.8345947265625,20.92667007446289,59.30748748779297,-17.88933892525329,-10.50432889741456,-17,-224,318,12,8,8,8,
264,173,-220,-97,738,776.178466796875,18.04311180114746,66.20352935791016,-16.465620703599203,-7.179096087180522,-38,-96,-201,12,8,11,9,
265,173,-213,-87,672,710.297119140625,18.89832305908203,67.77909088134766,-17.450065969549392,-7.035480408958022,10,7,-495,17,12,14,14,
266,173,-213,-141,741,783.792724609375,19.018224716186523,56.492916107177734,-15.768757764362565,-10.363615068805968,130,-253,782,11,9,9,12,
267,173,-228,-120,683,729.9815063476562,20.66614532470703,62.23798370361328,-18.20010622123081,-9.461668091694314,175,-473,-110,8,9,10,7,
268,173,-179,-85,723,749.6632690429688,15.324786186218262,64.59541320800781,-13.814184698026152,-6.510439349170736,-166,-157,-508,9,10,8,10,
269,173,-228,-94,729,769.5849609375,18.688316345214844,67.59127807617188,-17.233323153068785,-7.0158412725315245,-92,114,1087,9,6,8,8,
270,173,-231,-164,737,789.5733032226562,21.024311065673828,54.623191833496094,-17.011466564288227,-11.988017612334618,0,-245,-1510,10,10,10,8,
271,173,-258,-141,721,778.6436767578125,22.183059692382812,61.339393615722656,-19.350455696224827,-10.43291250216189,-40,-50,629,14,13,9,9,
272,173,-248,-66,708,753.0763549804688,19.922225952148438,75.09424591064453,-19.22725719393586,-5.027882112103724,107,-276,15,14,11,15,13,
273,173,-187,-135,753,787.5296630859375,17.02727508544922,54.16981887817383,-13.7361666847461,-9.870513847781933,-31,-792,-304,17,15,17,15,
274,179,-217,-106,737,775.5604248046875,18.141202926635742,63.962032318115234,-16.248129030638765,-7.855508812752081,-45,-53,937,16,15,15,17,
275,179,-228,-147,759,806.0235595703125,19.66573143005371,57.18501281738281,-16.43157851252849,-10.508232397228028,-20,340,338,15,19,18,20,
276,179,-232,-126,752,796.9968872070312,19.342756271362305,61.48996353149414,-16.923388045096655,-9.096251715181358,24,14,-504,16,15,14,13,
277,179,-235,-75,732,772.44677734375,18.62128257751465,72.29639434814453,-17.71172975423634,-5.57185848497277,45,-59,-12,16,18,15,15,
278,179,-204,-92,757,789.3851928710938,16.466650009155273,65.7221908569336,-14.976862796180729,-6.692826803221431,-215,-157,174,17,14,14,12,
279,182,-222,-204,784,839.9738159179688,21.032793045043945,47.41558837890625,-15.325003711193663,-14.055680078968239,17,-234,100,18,13,13,14,
280,182,-236,-103,780,821.404296875,18.267236709594727,66.4182357788086,-16.697148015194603,-7.203567775254032,-367,307,1,10,10,11,11,
281,182,-267,-82,682,736.978271484375,22.269189834594727,72.92427825927734,-21.240910818277573,-6.3882510543252975,-28,18,-221,11,12,12,12,
282,182,-238,-90,709,753.2761840820312,19.740156173706055,69.28255462646484,-18.418365681662763,-6.8619827172130865,-80,88,501,10,9,11,12,
283,187,-225,-99,739,778.811279296875,18.39680290222168,66.24715423583984,-16.792221441384317,-7.303015022477268,38,-251,682,11,14,15,14,
284,187,-225,-137,725,771.374755859375,19.966453552246094,58.65965270996094,-16.958982380554314,-10.230287900525886,53,-731,-411,17,14,15,15,
285,187,-259,-99,717,768.7463989257812,21.140296936035156,69.0779037475586,-19.68885710617457,-7.399162078228578,22,24,-87,12,12,14,11,
286,187,-220,-114,727,768.0657348632812,18.818462371826172,62.604164123535156,-16.644573392134248,-8.535652009219547,-16,-309,107,15,10,16,11,
287,187,-210,-129,709,750.6144409179688,19.165973663330078,58.43460464477539,-16.24652618479308,-9.895935048188383,-66,-221,-687,11,12,13,12,
288,186,-233,-163,763,814.2647094726562,20.437402725219727,55.02080154418945,-16.627466487829963,-11.5475205120075,93,-366,1004,10,7,6,8,
289,186,-219,-93,731,768.7463989257812,18.027101516723633,66.98780059814453,-16.551639253083998,-6.948443983804776,-32,-245,766,8,9,9,12,
290,186,-213,-83,739,773.5496215820312,17.186628341674805,68.70728302001953,-15.983112938044501,-6.159556103743778,-105,-7,273,9,7,8,9,
291,186,-226,-122,748,790.86279296875,18.947877883911133,61.635311126708984,-16.60451265240267,-8.873991301718354,-67,85,-379,8,9,7,7,
292,186,-213,-161,770,814.978515625,19.122182846069336,52.9117546081543,-15.150571983137322,-11.39379727912461,24,-121,-1208,7,5,6,6,
293,190,-215,-96,710,748.0247192382812,18.345088958740234,65.93531799316406,-16.703776500501153,-7.373562384301173,-53,-279,386,11,9,10,9,
294,190,-225,-75,739,776.1256103515625,17.79111099243164,71.56185150146484,-16.85206018016629,-5.5453646363432725,-10,3,121,8,6,6,6,
295,190,-217,-105,757,794.4577026367188,17.662063598632812,64.17559051513672,-15.851338135511249,-7.594753814498646,-103,-57,702,10,6,8,9,
296,190,-230,-134,760,805.2676391601562,19.300579071044922,59.770999908447266,-16.59587181458492,-9.578822768825109,-67,-117,751,7,6,6,9,
297,190,-249,-101,716,764.7600708007812,20.568326950073242,67.91812133789062,-19.001463344091196,-7.589085118182761,53,6,-107,19,20,22,24,
298,194,-222,-68,723,759.3662109375,17.80154037475586,72.96668243408203,-16.99864407857259,-5.137625391059539,48,-23,-403,21,23,20,25,
299,194,-222,-111,710,752.1336059570312,19.266645431518555,63.431514739990234,-17.167150833329792,-8.486719095370589,65,-174,-569,21,20,21,28,
300,194,-218,-154,719,766.942626953125,20.363948822021484,54.758079528808594,-16.51375442248191,-11.58358609373471,-39,-362,179,21,24,25,32,
301,194,-220,-182,760,811.864501953125,20.588626861572266,50.396148681640625,-15.722660685449155,-12.954389578485964,99,-328,-343,25,29,26,29,
302,194,-217,-102,695,735.1992797851562,19.032485961914062,64.8209228515625,-17.167015829065967,-7.974820077861771,-49,18,447,26,29,32,33,
303,195,-230,-135,702,750.9520874023438,20.79995346069336,59.58537673950195,-17.835060298951248,-10.356467779359782,-57,-510,1030,19,15,14,19,
304,195,-233,-92,715,757.6133422851562,19.30620002746582,68.45013427734375,-17.91132700353037,-6.9748684542470825,26,-226,613,10,13,13,13,
305,195,-235,-69,708,749.1661987304688,19.080087661743164,73.63372802734375,-18.281269454411003,-5.284567799362853,-13,-147,-53,12,10,12,12,
306,195,-223,-51,741,775.5069580078125,17.154067993164062,77.11498260498047,-16.711564839449977,-3.770688566528407,-78,-10,-435,10,10,7,9,
307,195,-231,-153,776,823.9818115234375,19.647235870361328,56.47834014892578,-16.28085610773762,-10.700997005881364,-55,-215,-477,9,9,6,11,
308,198,-231,-113,701,746.6799926757812,20.143190383911133,63.92973709106445,-18.02123665186575,-8.704391632016419,-15,-95,736,10,8,9,13,
309,198,-223,-110,776,814.864990234375,17.764930725097656,63.740657806396484,-15.882470072628657,-7.758138928855573,13,-154,-90,5,6,6,7,
310,198,-217,-58,743,776.2100219726562,16.818510055541992,75.03262329101562,-16.234155467189353,-4.285251822201781,-48,-15,232,10,6,6,6,
311,198,-222,-134,768,810.5948486328125,18.65458106994629,58.88109588623047,-15.894860531720427,-9.515284064050629,-36,-334,938,9,7,8,7,
312,198,-230,-114,722,766.2767333984375,19.57041358947754,63.63115310668945,-17.46677297194127,-8.55572962528062,-31,49,-4,7,9,6,6,
313,203,-219,-145,754,798.4371948242188,19.20342445373535,56.48779296875,-15.919457587505976,-10.46324647796673,49,-97,-836,7,7,6,5,
314,203,-213,-78,738,772.0731811523438,17.083242416381836,69.88416290283203,-16.01449803643897,-5.7982950471324415,57,-224,-971,8,6,8,7,
315,203,-221,-126,730,773.0569458007812,19.210678100585938,60.307456970214844,-16.611340645249875,-9.380448229788533,-58,-145,564,8,8,7,9,
316,203,-225,-102,725,765.9334106445312,18.8142147064209,65.6102523803711,-17.083149425874907,-7.652861962389333,-39,-172,869,10,11,8,7,
317,203,-228,-116,720,764.09423828125,19.557798385620117,63.03084182739258,-17.361079367691115,-8.732049829931146,-43,-503,1119,6,10,11,10,
318,207,-220,-130,742,784.77001953125,19.001190185546875,59.41720962524414,-16.28031317131869,-9.535206949463536,-1,-138,-640,10,7,7,8,
319,207,-210,-95,752,786.5297241210938,17.038190841674805,65.6555404663086,-15.485567396103713,-6.937336501006742,-108,99,410,8,14,9,10,
320,207,-223,-163,726,776.7715454101562,20.828258514404297,53.83164596557617,-16.683561577899408,-12.113146762692997,-88,-225,-781,9,7,7,8,
321,207,-225,-93,693,734.5222778320312,19.355146408081055,67.53974914550781,-17.8376885772982,-7.273908448439525,71,-556,-738,7,12,13,9,
322,209,-216,-87,707,744.3614501953125,18.228071212768555,68.05821228027344,-16.868828240918845,-6.711997392940078,118,-649,1074,7,8,10,12,
323,209,-210,-44,738,768.5570678710938,16.208646774291992,78.1633529663086,-15.857115289702364,-3.281985820928476,-96,-279,693,9,14,14,12,
324,209,-217,-109,777,814.0632934570312,17.35354995727539,63.32599639892578,-15.459909567724344,-7.694798912926462,-13,64,1152,7,10,11,10,
325,209,-184,-208,818,863.8541259765625,18.749858856201172,41.49238204956055,-12.298154635237342,-13.932662933369892,-47,-196,600,136,130,109,143,
326,209,-224,-72,714,751.7685546875,18.236677169799805,72.17793273925781,-17.335359315498376,-5.495878756273964,81,-489,782,55,46,46,52,
327,214,-234,-48,732,769.9896240234375,18.070850372314453,78.40483093261719,-17.692009810254095,-3.574050550698278,-7,-712,-44,40,33,33,42,
328,214,-208,-81,750,782.511962890625,16.57190704345703,68.7196273803711,-15.4151259243046,-5.941488913263485,-109,9,-614,20,19,23,22,
329,214,-200,-200,803,851.357177734375,19.401840209960938,44.99601745605469,-13.586850175868047,-13.586850175868047,-173,10,-943,13,16,13,13,
330,214,-207,-223,818,872.7554321289062,20.401323318481445,42.8650016784668,-13.720152625527017,-14.803961009824713,-150,30,1402,17,12,14,12,
331,214,-224,-69,766,801.0574340820312,17.01130485534668,72.87614440917969,-16.23814643787695,-4.941360917148962,-72,-116,103,9,10,10,9,
332,217,-258,-102,693,746.4696655273438,21.81586456298828,68.42540740966797,-20.220068326176868,-7.853648362340761,84,34,532,16,15,9,7,
333,217,-213,-141,726,769.627197265625,19.38217544555664,56.492916107177734,-16.066769750369858,-10.556532177923195,-54,-524,-612,12,10,11,9,
334,217,-225,-78,696,735.6119995117188,18.886289596557617,70.87705993652344,-17.81037871951431,-6.086752246119355,19,-241,614,8,15,9,8,
335,217,-193,-85,760,788.7166748046875,15.506338119506836,66.22725677490234,-14.164182425675515,-6.1867819912080195,-34,-231,-251,9,11,6,7,
336,217,-218,-75,740,775.0800170898438,17.301830291748047,71.01168823242188,-16.335496899840184,-5.552869224253735,28,-194,-991,7,9,9,8,
337,223,-246,-129,707,759.609130859375,21.447221755981445,62.32444381713867,-18.89596415868276,-9.777597113203115,122,-364,1232,8,7,6,10,
338,223,-225,-87,732,770.7256469726562,18.237783432006836,68.85690307617188,-16.973698290763803,-6.481398458027798,32,142,660,6,10,6,6,
339,223,-218,-58,757,789.8968505859375,16.59172821044922,75.09821319580078,-16.020746756370794,-4.210864672362822,-9,124,568,7,6,8,9,
340,223,-232,-87,729,769.9571533203125,18.770021438598633,69.4406967163086,-17.53663059259503,-6.487895287718471,78,-124,258,6,8,6,5,
341,223,-227,-116,747,789.2996826171875,18.840648651123047,62.92890548706055,-16.71412959089747,-8.451126505974942,-27,-103,-767,8,7,8,5,
342,220,-273,-121,686,748.1751098632812,23.521364212036133,66.09259796142578,-21.40068026868381,-9.307142664027364,136,-632,-404,9,7,6,7,
343,220,-222,-90,748,785.4221801757812,17.755708694458008,67.92879486083984,-16.418460869726037,-6.579865277667275,-68,-611,-82,10,8,8,10,
344,220,-201,-118,777,811.2052612304688,16.695537567138672,59.58075714111328,-14.346150498367656,-8.364066199933639,-57,-177,730,10,9,7,8,
345,220,-214,-119,730,769.9721069335938,18.540699005126953,60.919158935546875,-16.136828044737292,-8.890760086205063,-42,40,745,8,8,9,6,
346,220,-196,-160,776,816.2058715820312,18.05636978149414,50.770511627197266,-13.894537714091028,-11.304839897296501,-196,20,392,6,8,8,8,
347,227,-219,-180,747,798.9805908203125,20.7792911529541,50.57878112792969,-15.908343784516042,-13.019759592075259,-72,-1596,325,7,7,8,7,
348,227,-159,-180,793,828.571044921875,16.847349166870117,41.45113754272461,-11.063490515826837,-12.547063094052419,-293,-1902,198,19,14,9,12,
349,227,-248,-118,651,706.5614013671875,22.871753692626953,64.55117797851562,-20.5482277820892,-9.613787638911152,263,-747,-398,8,10,9,11,
350,227,-248,-80,717,762.8846435546875,19.970928192138672,72.11812591552734,-18.9705374400282,-6.0193962759361765,-26,-539,-187,8,10,8,6,
351,227,-225,-77,744,781.0825805664062,17.723735809326172,71.10469818115234,-16.7419501621713,-5.6574712278908175,-22,-181,-174,10,14,7,12,
352,231,-219,-121,747,787.7886962890625,18.51590347290039,61.07534408569336,-16.140476985719676,-8.835290370811482,-42,-150,1462,8,11,6,8,
353,231,-205,-93,705,740.06689453125,17.70632553100586,65.59480285644531,-16.081355215570714,-7.219120847756826,-87,1526,-426,9,9,8,10,
354,231,-228,-84,735,774.1220703125,18.291101455688477,69.77188873291016,-17.12918763752341,-6.2294316697073855,52,876,275,7,10,9,8,
355,231,-249,-84,692,740.2168579101562,20.792226791381836,71.3550033569336,-19.65695794350223,-6.515976395901256,183,-143,28,7,8,9,6,
356,231,-225,-66,708,745.818359375,18.322078704833984,73.64868927001953,-17.558658466167312,-5.076939347958003,8,899,-593,7,10,7,9,
357,233,-156,-269,840,895.7103271484375,20.312105178833008,30.10611915588379,-10.029979640533263,-17.476842374446267,-635,-555,215,16,11,12,10,
358,233,-225,-151,745,792.7490234375,19.985332489013672,56.13034439086914,-16.488476064538805,-10.980589247563302,-94,445,548,10,10,9,5,
359,233,-246,-138,679,735.2557373046875,22.556529998779297,60.70512390136719,-19.54684579128972,-10.817993979353734,95,-742,351,13,10,8,11,
360,233,-183,-53,708,733.1862182617188,15.059104919433594,73.84493255615234,-14.453579233963204,-4.145368839308521,-67,76,20,28,29,23,19,
361,233,-199,-54,760,787.47509765625,15.177366256713867,74.81489562988281,-14.637721557585952,-3.9320635524294376,-84,-789,169,15,19,14,16,
362,232,-185,-86,786,812.044921875,14.548239707946777,65.0645523071289,-13.168754103964588,-6.079336913091872,-219,264,-68,15,12,11,11,
363,232,-194,-162,787,826.5887451171875,17.80228614807129,50.13255310058594,-13.573912007955908,-11.302340926114024,-170,-107,-355,7,8,9,8,
364,232,-298,-83,597,672.3853149414062,27.38964080810547,74.43311309814453,-26.308121677272847,-7.090741738144068,735,-15,633,19,14,12,12,
365,232,-252,-48,765,806.8661499023438,18.53595733642578,79.21273040771484,-18.199067400674437,-3.410506346922271,144,416,-532,17,20,17,14,
366,242,-252,-97,692,742.8169555664062,21.314109802246094,68.94397735595703,-19.831133690137108,-7.503340211022534,82,-1002,870,16,18,17,15,
367,242,-314,-91,555,644.1288452148438,30.498281478881836,73.83480834960938,-29.175089430074877,-8.121694072716314,411,-920,791,15,16,11,10,
368,242,-297,-87,452,547.7974243164062,34.39744186401367,73.67001342773438,-32.83156724907592,-9.138285983011038,360,-2833,775,19,10,12,6,
369,242,-202,-27,724,752.1362915039062,15.719022750854492,82.38390350341797,-15.57909287926294,-2.0572315310818152,-196,2351,19,10,10,14,10,
370,242,-242,-124,710,760.2894287109375,20.954038619995117,62.866092681884766,-18.560137509533366,-9.386632608820317,-200,2005,-1299,17,15,18,15,
371,242,-263,-98,647,705.253173828125,23.448989868164062,69.56016540527344,-21.895551394855087,-7.987508206078233,242,-1050,847,13,13,11,15,
372,242,-263,-78,684,736.9592895507812,21.851573944091797,73.47766876220703,-20.908207237409766,-6.075582558354321,228,-917,1187,30,20,18,19,
373,242,-228,-59,726,763.2437133789062,17.97063446044922,75.48863220214844,-17.381040945364063,-4.433481195349298,-204,-144,-1129,10,15,13,12,
374,242,-211,-61,737,769.0325317382812,16.59292984008789,73.872314453125,-15.924516453705657,-4.5495059098937825,225,-157,525,12,12,11,8,
375,242,-264,-126,777,830.2415161132812,20.628435134887695,64.48272705078125,-18.540793039172875,-8.72911263561816,-135,159,-784,16,16,14,12,
376,248,-177,-172,801,838.1610717773438,17.123058319091797,45.816837310791016,-12.191312384299387,-11.841859872921159,-313,-1469,340,6,8,6,7,
377,248,-197,-86,719,750.44384765625,16.642492294311523,66.4130630493164,-15.219126483902693,-6.580487546309586,29,-1289,783,21,10,18,11,
378,248,-177,-156,786,820.6466674804688,16.70606231689453,48.60459518432617,-12.455633279739716,-10.958269051157384,-201,-1073,524,25,16,18,13,
379,248,-161,-164,783,816.0306396484375,16.355396270751953,44.467124938964844,-11.378910879058111,-11.593854214475664,-88,-264,363,16,14,12,10,
380,248,-186,-141,795,828.5541381835938,16.359474182128906,52.83177185058594,-12.972739431376205,-9.7980498972136,234,878,-280,9,10,10,8,
381,247,-205,-75,775,805.1552734375,15.72836685180664,69.90151977539062,-14.75043423526136,-5.3448352092428335,-7,388,117,12,13,12,12,
382,247,-196,-81,721,751.5437622070312,16.388755798339844,67.54307556152344,-15.117330598940896,-6.187251859733739,-54,954,46,7,10,7,8,
383,247,-216,-135,797,836.7138061523438,17.72150230407715,57.991024017333984,-14.960483104358811,-9.285001918044296,-176,497,-185,7,9,8,9,
384,247,-210,-102,748,783.5866088867188,17.33170509338379,64.09007263183594,-15.545197527166827,-7.479455080167624,143,41,52,6,10,10,9,
385,247,-212,-138,715,758.427978515625,19.48109245300293,56.934513092041016,-16.231890249590787,-10.483671987258347,149,-272,929,10,8,10,7,
386,252,-199,-61,692,722.6243896484375,16.7380428314209,72.95482635498047,-15.984965890874813,-4.842359090930344,-71,487,504,14,15,11,10,
387,252,-172,-125,720,750.7389526367188,16.45029067993164,53.98871612548828,-13.244537859704126,-9.584535438924622,-90,-406,-47,16,17,10,11,
388,252,-234,-81,691,734.0286254882812,19.713272094726562,70.90328979492188,-18.58968424375296,-6.335487438093812,156,-137,-322,14,12,11,9,
389,252,-261,-113,639,699.4362182617188,23.991357803344727,66.5864486694336,-21.91049275768335,-9.29738004071532,209,-48,1,8,15,9,8,
390,252,-126,-182,830,859.0110473632812,14.93088436126709,34.69086837768555,-8.434593778731328,-12.232052128516912,-847,401,-247,14,18,10,11,
391,249,-217,-105,790,825.9624633789062,16.9674129486084,64.17559051513672,-15.231744493750712,-7.30345497241892,-51,-343,696,8,13,14,11,
392,249,-209,-93,697,733.57958984375,18.167875289916992,66.00871276855469,-16.5531301229162,-7.283306699986745,-121,859,840,14,18,12,16,
393,249,-203,-235,795,853.4981079101562,21.334293365478516,40.81732177734375,-13.759367744949525,-15.982125726374889,-329,-6,218,7,17,10,9,
394,249,-208,-41,735,764.9640502929688,16.087419509887695,78.8460922241211,-15.777847606285238,-3.072370685781439,-53,-343,609,15,18,10,10,
395,249,-231,-65,796,831.3856201171875,16.774372100830078,74.28106689453125,-16.1318929226708,-4.484116955268383,-280,-1153,-115,15,17,15,16,
396,255,-286,-113,649,718.1685180664062,25.35098648071289,68.43749237060547,-23.467900505854615,-9.052805942403943,396,-1032,-554,14,14,11,10,
397,255,-227,-102,789,827.3173217773438,17.503982543945312,65.80038452148438,-15.925117528006446,-7.08201919712035,-265,-226,-535,22,17,14,14,
398,255,-226,-57,778,812.1631469726562,16.675270080566406,75.84143829345703,-16.15693279165756,-4.024494864041094,-333,336,1013,22,20,19,15,
399,255,-221,-84,732,769.2340087890625,17.8975830078125,69.18540954589844,-16.69630685788607,-6.269174421436235,-272,227,889,18,17,14,12,
400,255,-197,-126,741,777.0238037109375,17.512758255004883,57.393653869628906,-14.686586138088241,-9.332129668828888,-301,30,347,9,11,7,10,
401,259,-252,-115,735,785.4641723632812,20.64791488647461,65.46707153320312,-18.713090422554412,-8.418951514254715,-65,-1249,-532,19,15,12,11,
402,259,-192,-90,760,789.0272216796875,15.587408065795898,64.88176727294922,-14.083612531139762,-6.549669891409003,61,-339,-836,17,15,16,13,
403,259,-294,-94,641,711.4443359375,25.71037483215332,72.26629638671875,-24.408773365407004,-7.592439458133623,277,-1026,305,10,10,9,11,
404,259,-140,-141,741,767.1779174804688,15.00845718383789,44.7921142578125,-10.514654023150168,-10.590622701421669,-230,-992,1001,27,19,15,16,
405,268,-219,-102,679,720.6982421875,19.5835018157959,65.02269744873047,-17.690311472773054,-8.136356178025094,477,-373,654,7,15,7,13,
406,268,-214,-80,687,723.992431640625,18.392629623413086,69.49939727783203,-17.192512600982592,-6.344046760143782,286,-414,462,13,12,8,6,
407,268,-216,-57,693,728.1167602539062,17.865028381347656,75.21418762207031,-17.256848314324635,-4.489945360301254,35,623,-22,12,16,7,10,
408,268,-210,-64,744,775.7138671875,16.437847137451172,73.04761505126953,-15.70701904638888,-4.732547648037576,-321,237,-138,13,13,10,12,
409,268,-219,-92,770,805.8070678710938,17.14246940612793,67.20982360839844,-15.770049232319971,-6.5558264790298475,-227,-748,236,13,10,9,11,
410,263,-205,-74,773,803.1375732421875,15.743598937988281,70.1484146118164,-14.788335009303955,-5.286653047940702,-136,-453,-258,19,12,8,9,
411,263,-177,-63,685,710.2978515625,15.335359573364258,70.40448760986328,-14.429659461568649,-5.088546732877037,-36,-494,-511,13,11,13,12,
412,263,-213,-110,744,781.6680908203125,17.85752296447754,62.683258056640625,-15.812738793517976,-8.089783138544703,-156,401,211,11,12,10,12,
413,263,-219,-117,725,766.3386840820312,18.90294075012207,61.8833122253418,-16.605145183703627,-8.78192113628572,-103,-144,1398,11,10,12,12,
414,263,-222,-114,679,723.4093017578125,20.1783390045166,62.8154411315918,-17.87131810887881,-9.066872768394093,163,-697,1130,8,8,8,6,
415,268,-195,-111,775,806.8277587890625,16.144685745239258,60.34660720825195,-13.98614629313873,-7.907594458216366,-280,-1007,-403,24,12,13,10,
416,268,-194,-153,812,848.75732421875,16.9216365814209,51.734798431396484,-13.212864232864614,-10.385110612532484,-428,-120,-660,10,9,7,9,
417,268,-228,-130,766,809.7160034179688,18.911104202270508,60.30573654174805,-16.354539149586447,-9.23882852053942,-146,-104,-268,6,7,10,9,
418,268,-242,-135,732,782.6959838867188,20.73277473449707,60.84147262573242,-18.010286625401314,-9.932087282589672,-278,-295,77,17,9,10,8,
419,268,-229,-150,711,761.8805541992188,21.05597686767578,56.77067947387695,-17.491964672008454,-11.35464208835616,-79,233,308,12,10,11,13,
420,270,-264,-57,680,731.6727294921875,21.660036087036133,77.8133316040039,-21.150382336635765,-4.468079390080719,317,354,1013,19,12,15,12,
421,270,-242,-132,706,757.9076538085938,21.32624053955078,61.386043548583984,-18.6206042103013,-10.029994306984955,56,-272,1062,14,8,11,10,
422,270,-228,-140,789,833.129638671875,18.72981834411621,58.44502639770508,-15.882585400118487,-9.673942463091883,-297,-45,-848,11,8,9,9,
423,270,-243,-87,752,795.0609741210938,18.941370010375977,70.29814147949219,-17.796486901994882,-6.282203009482072,-161,-19,-823,8,10,10,10,
424,270,-228,-55,738,774.3726196289062,17.628376007080078,76.43470001220703,-17.123473935224187,-4.072875483481657,134,36,-183,9,8,11,8,
425,274,-239,-135,682,735.1666259765625,21.921850204467773,60.53638458251953,-18.971412933032028,-10.581375801166754,119,-237,-304,7,9,11,10,
426,274,-213,-126,693,735.8627319335938,19.650083541870117,59.3900260925293,-16.825399230857922,-9.859200860827809,108,-199,887,9,13,12,11,
427,274,-236,-80,711,753.4036254882812,19.312416076660156,71.27100372314453,-18.25490540514328,-6.095431350290637,-37,-198,1324,12,8,12,9,
428,274,-225,-72,729,766.3223876953125,17.953277587890625,72.25215148925781,-17.074212172473523,-5.391190231062388,-67,-176,853,6,8,9,7,
429,274,-246,-93,719,765.5886840820312,20.089202880859375,69.2876968383789,-18.74285474305344,-6.977245502391862,55,-77,-849,7,9,11,11,
430,272,-217,-118,703,745.1322021484375,19.35749626159668,61.46009826660156,-16.931218730462312,-9.111784873632782,-4,-119,-90,9,10,13,10,
431,272,-210,-111,709,747.7312622070312,18.519906997680664,62.13688278198242,-16.310916565104854,-8.537058083128581,15,-395,-403,8,10,13,15,
432,272,-226,-66,711,748.9679565429688,18.319618225097656,73.71719360351562,-17.56265580835122,-5.055533737891344,-230,-339,-821,8,11,14,13,
433,272,-198,-72,723,753.0717163085938,16.244123458862305,70.0136489868164,-15.243583575283651,-5.486339393906509,-205,166,483,7,7,5,9,
434,272,-204,-177,818,861.4342651367188,18.269824981689453,49.04969024658203,-13.698596902891643,-11.857088586715438,-262,104,1350,13,8,11,11,
435,276,-215,-156,786,829.6728515625,18.67087173461914,54.0323486328125,-15.01893764099975,-10.837601748716098,-49,184,106,13,11,11,11,
436,276,-239,-74,714,756.5665893554688,19.30896759033203,72.7930908203125,-18.415203626990994,-5.613091335717143,-106,-3,595,9,10,14,11,
437,276,-205,-59,732,762.4500122070312,16.245140075683594,73.9407958984375,-15.597041714597676,-4.43810585347301,-240,110,416,8,7,7,7,
438,276,-205,-126,764,800.9974975585938,17.4799861907959,58.42011260986328,-14.828751463690063,-9.050437171489842,-82,9,-849,9,7,8,7,
439,276,-224,-132,770,812.7114868164062,18.65578269958496,59.48621368408203,-15.998998762573732,-9.34734655544811,-187,-108,-1317,6,9,10,11,
440,279,-238,-134,698,749.5358276367188,21.368562698364258,60.61586380004883,-18.513605629399947,-10.298549350664608,-93,-8,2351,8,10,9,11,
441,279,-242,-76,699,743.6000366210938,19.942766189575195,72.56195831298828,-18.992463136433553,-5.866186208607294,99,61,-149,10,10,12,12,
442,279,-230,-95,724,765.5723266601562,18.966354370117188,67.5539321899414,-17.483361392657272,-7.1282172035557245,-9,-12,-146,8,8,9,8,
443,279,-232,-91,726,767.5812377929688,18.943336486816406,68.57954406738281,-17.59268099569529,-6.808669982626668,-91,-390,963,8,8,8,9,
444,281,-192,-165,655,702.2207641601562,21.129526138305664,49.321197509765625,-15.867776710526696,-13.589786165201723,92,-572,-836,9,8,10,10,
445,281,-243,-78,745,787.5010986328125,18.90761947631836,72.2008285522461,-17.973132995755563,-5.684322750351914,144,130,-1046,10,9,12,17,
446,281,-240,-67,732,773.2483520507812,18.796741485595703,74.39892578125,-18.08206856835498,-4.970766589462041,-93,41,1116,10,8,9,9,
447,281,-207,-155,711,756.5679321289062,19.98493003845215,53.17066955566406,-15.878838471019712,-11.822038610659263,24,-216,433,7,8,10,9,
448,281,-204,-95,711,745.7626953125,17.560741424560547,65.02586364746094,-15.875351821067914,-7.318586388995117,-127,-224,864,11,9,13,9,
449,289,-235,-75,720,761.0847778320312,18.909786224365234,72.29639434814453,-17.98510961633606,-5.655308284300233,-38,-237,511,13,11,12,8,
450,289,-244,-123,762,809.5115966796875,19.72547721862793,63.24394989013672,-17.542690323903738,-8.739570417412581,-16,-406,487,12,8,10,9,
451,289,-201,-149,794,832.489013671875,17.488449096679688,53.446956634521484,-13.971818716347446,-10.310431109925576,-113,197,-518,10,12,11,10,
452,289,-261,-94,760,809.0469970703125,20.05076789855957,70.19010925292969,-18.82034324798277,-6.672041331904254,-172,-425,-1114,10,7,13,13,
453,289,-219,-82,693,731.391845703125,18.644519805908203,69.46936798095703,-17.42331714681316,-6.437250905003441,-49,-223,775,8,11,8,10,
454,286,-216,-84,713,749.7206420898438,18.004470825195312,68.7462158203125,-16.744678146552136,-6.433026187376467,-38,-299,-741,10,9,10,7,
455,286,-225,-105,785,823.3316650390625,17.549936294555664,64.97972106933594,-15.859534350588445,-7.32691981571784,-116,79,1307,21,9,13,9,
456,286,-183,-171,806,844.0177612304688,17.260164260864258,46.93755340576172,-12.522329272568047,-11.68917988554605,-464,-333,444,8,7,11,6,
457,286,-243,-100,736,781.5017700195312,19.645854949951172,67.62841033935547,-18.11587626232484,-7.351653031135436,-36,-44,-593,12,7,10,11,
458,286,-228,-81,708,748.203857421875,18.86589241027832,70.43851470947266,-17.741908020493362,-6.214979626467337,-79,-146,404,11,10,9,11,
459,294,-218,-104,685,726.336669921875,19.42099952697754,64.4924545288086,-17.465789027431548,-8.23214918955752,-61,-175,-158,6,6,7,6,
460,294,-220,-105,724,763.9378051757812,18.606393814086914,64.48272705078125,-16.737152975917486,-7.90006909257251,-159,-305,-313,8,6,9,8,
461,294,-236,-191,788,844.4649047851562,21.069021224975586,51.012184143066406,-16.22839070316468,-13.07220119515464,-126,-4,-44,13,10,8,9,
462,294,-251,-102,717,766.4815673828125,20.698083877563477,67.8811264038086,-19.11530865742209,-7.647356222261181,-16,21,910,11,7,9,9,
463,294,-243,-132,732,782.4940795898438,20.69369125366211,61.48526382446289,-18.092106513925877,-9.711741264217356,-43,-151,436,8,8,12,13,
464,290,-231,-138,714,763.02099609375,20.647634506225586,59.142234802246094,-17.622487298723453,-10.419858466387817,239,-250,-554,10,9,10,7,
465,290,-210,-81,685,721.0311889648438,18.18757438659668,68.90438842773438,-16.932778385461713,-6.450172333224148,-23,-72,337,11,9,10,12,
466,290,-210,-54,688,721.3598022460938,17.490751266479492,75.5761489868164,-16.9248319875975,-4.293098898123266,-47,-180,957,7,6,8,10,
467,290,-232,-83,697,739.271240234375,19.467193603515625,70.31166076660156,-18.289747429731655,-6.4463449171811105,-71,-353,-1397,14,12,13,12,
468,290,-200,-187,800,845.5584106445312,18.891712188720703,46.920013427734375,-13.681833282636754,-12.776917790058357,112,87,1067,12,10,8,9,
469,305,-231,-78,728,767.7427978515625,18.5140323638916,71.33890533447266,-17.510586736798594,-5.831112896571374,61,46,-403,9,10,14,10,
470,305,-226,-87,714,753.9502563476562,18.733287811279297,68.94222259521484,-17.442859677439532,-6.626248613539522,-88,-316,669,10,9,10,11,
471,305,-216,-56,749,781.532470703125,16.587615966796875,75.46246337890625,-16.04427433197514,-4.10899837133294,-137,-49,372,11,11,10,11,
472,305,-218,-159,756,802.7085571289062,19.63991928100586,53.89085006713867,-15.758338467530907,-11.424668105490365,-98,-162,-24,13,9,12,9,
473,305,-220,-105,773,810.5269775390625,17.50098991394043,64.48272705078125,-15.749279445697226,-7.443320453681653,-251,274,187,10,9,9,11,
474,309,-232,-99,732,774.2409057617188,19.0113525390625,66.8875503540039,-17.43648237379039,-7.346361916942621,-190,-93,140,10,9,12,9,
475,309,-228,-99,704,746.5929565429688,19.44485092163086,66.5256576538086,-17.78146643743996,-7.6199999696591165,-9,37,-376,9,8,9,7,
476,309,-214,-132,728,770.1973876953125,19.051740646362305,58.32919692993164,-16.131978821867072,-9.868334691237537,-156,-182,-281,12,8,12,9,
477,309,-200,-156,813,851.6483764648438,17.32509422302246,52.041988372802734,-13.582114643188712,-10.554701856513315,-201,-25,328,11,9,13,9,
478,309,-226,-123,728,772.1327514648438,19.463293075561523,61.439361572265625,-17.0194175143339,-9.166211784683052,-78,77,-346,13,10,11,10,
479,308,-266,-99,762,813.1426391601562,20.427034378051758,69.58245849609375,-19.09441980982408,-6.9931023116279505,192,81,147,11,8,10,10,
480,308,-237,-150,700,754.1014404296875,21.833253860473633,57.66619873046875,-18.317433217236495,-11.473356302096754,22,-143,-107,10,7,11,9,
481,308,-225,-111,742,783.268798828125,18.679689407348633,63.737911224365234,-16.693850183684276,-8.147028848773997,-248,-414,104,11,15,13,11,
482,308,-222,-95,720,759.41357421875,18.538238525390625,66.82923126220703,-16.997550668785266,-7.186329927630201,-118,-427,608,17,8,10,8,
483,308,-231,-56,732,769.6239624023438,17.98723793029785,76.36994934082031,-17.466407914323057,-4.172689449724921,-40,-57,-570,10,6,9,7,
484,308,-211,-134,753,793.4015502929688,18.361175537109375,57.577938079833984,-15.423024613264662,-9.723464480560509,-42,-24,49,11,7,10,8,
485,308,-219,-138,744,787.7442626953125,19.181772232055664,57.77985763549805,-16.14141219424356,-10.089352033189412,-16,-234,891,7,7,10,10,
486,308,-221,-112,693,735.9578857421875,19.670806884765625,63.12123489379883,-17.47495741707538,-8.753433963752187,300,-190,-36,10,6,11,11,
487,308,-208,-63,709,741.5618896484375,17.03985023498535,73.1460952758789,-16.28939626040497,-4.873484636150061,35,-229,-366,11,7,8,9,
488,309,-222,-68,722,758.4141235351562,17.82464027404785,72.96668243408203,-17.020632947773613,-5.144092099964523,67,-155,1294,6,7,9,9,
489,309,-216,-117,717,757.9142456054688,18.909934997558594,61.55358123779297,-16.558410138722017,-8.880319706291619,399,-81,-157,13,8,9,10,
490,309,-232,-184,778,832.444580078125,20.834861755371094,51.578163146972656,-16.182466556564417,-12.769873798238375,11,211,570,6,8,8,11,
491,309,-216,-72,741,775.19091796875,17.078256607055664,71.56185150146484,-16.179113628899742,-5.329332885217997,-114,-238,-1368,14,17,11,9,
492,309,-231,-126,744,789.15966796875,19.474992752075195,61.386043548583984,-17.020654600338858,-9.187365361133054,-108,-215,-535,8,10,9,11,
493,311,-231,-109,721,764.9071655273438,19.505382537841797,64.73579406738281,-17.577612677916996,-8.192591370345571,-79,-34,700,7,7,5,7,
494,311,-215,-167,773,819.5382690429688,19.3994083404541,52.15815734863281,-15.209123431772165,-11.757697139823074,-271,-67,793,4,4,5,7,
495,311,-237,-144,753,802.4425048828125,20.215866088867188,58.71376419067383,-17.178421553971944,-10.337848135910816,-254,-309,-420,8,9,9,11,
496,311,-254,-88,714,762.9259643554688,20.628686904907227,70.8877944946289,-19.44663687660348,-6.623547700759329,151,124,523,8,10,9,12,
497,311,-238,-120,708,756.5104370117188,20.627805709838867,63.23923873901367,-18.336813476682728,-9.126983036016457,123,-210,189,9,4,9,10,
498,317,-204,-79,711,743.893798828125,17.100072860717773,68.82758331298828,-15.916292685808086,-6.096190153243252,-48,-170,-1335,9,8,10,7,
499,317,-199,-144,673,716.4258422851562,20.049333572387695,54.10610580444336,-16.127022403803224,-11.595312092877183,3,-396,249,9,8,8,6,
500,317,-223,-75,708,746.068359375,18.37996482849121,71.40782928466797,-17.391559977331678,-5.769517184365505,-34,-87,346,11,7,9,7,
501,317,-210,-125,760,798.3263549804688,17.823678970336914,59.23371887207031,-15.25113401001624,-9.008301337400253,-101,-181,-136,13,10,11,9,
502,317,-240,-132,723,773.1448974609375,20.74690818786621,61.185707092285156,-18.08457210197237,-9.830338849831495,-191,-197,1020,8,9,10,8,
503,325,-216,-111,730,769.33544921875,18.39881706237793,62.79841995239258,-16.30567660871142,-8.295609228180888,-47,-485,169,6,6,6,4,
504,325,-216,-50,752,784.0025634765625,16.424882888793945,76.96360778808594,-15.992367862563286,-3.656537242777812,-40,498,-25,7,8,8,7,
505,325,-227,-51,756,790.9905395507812,17.10356330871582,77.33460998535156,-16.67735564950849,-3.6967739625892735,-21,264,-727,21,17,21,20,
506,325,-214,-105,796,830.9254150390625,16.668781280517578,63.86149978637695,-14.924392397382695,-7.2595975197822415,-22,809,206,15,17,16,13,
507,325,-185,-131,621,661.0802001953125,20.05162811279297,54.69368362426758,-16.250955666103124,-11.429412567884825,-390,-1179,-282,11,10,11,11,
508,321,-295,-47,783,838.047119140625,20.880203247070312,80.94468688964844,-20.61023408315817,-3.214992547120632,158,-428,632,19,13,12,15,
509,321,-214,-132,709,752.263916015625,19.524185180664062,58.32919692993164,-16.52744731875121,-10.10602974180457,-8,-2309,500,46,20,31,29,
510,321,-186,-188,712,759.52880859375,20.374706268310547,44.68961715698242,-14.175254726894872,-14.3309183739523,-168,-1792,52,11,6,11,12,
511,321,-200,-241,763,824.772705078125,22.31405258178711,39.68430709838867,-14.033611130750298,-16.989815832090148,417,-1738,-450,7,10,9,12,
512,321,-234,-119,834,874.3414916992188,17.470443725585938,63.04107666015625,-15.523286131828089,-7.822373013380689,-205,1321,-244,10,11,12,13,
513,325,-277,-223,925,991.0010375976562,21.026844024658203,51.16025161743164,-16.231281787255504,-13.004348133926419,218,598,-861,7,15,14,11,
514,325,-262,-331,811,914.2899169921875,27.496126174926758,38.35887145996094,-16.652191140240273,-21.224892960663205,671,-1724,330,9,15,11,12,
515,325,-126,-125,599,624.7415161132812,16.50252342224121,45.22428894042969,-11.635417040887484,-11.541797442974255,-345,-2543,-9,9,11,15,16,
516,325,-188,-68,602,634.3280029296875,18.368852615356445,70.1115951538086,-17.240105235466235,-6.153936415906803,-622,-1683,795,14,11,12,11,
517,325,-170,-188,656,703.2637939453125,21.12340545654297,42.1175537109375,-13.988671976911387,-15.505150521676697,-22,-2306,451,7,9,8,9,
518,325,-285,-81,767,822.23779296875,21.119184494018555,74.13117218017578,-20.28041591965303,-5.653470940700512,214,-724,-763,12,9,7,10,
519,325,-231,-82,759,797.6001586914062,17.895963668823242,70.45301055908203,-16.835135631011976,-5.900914074987343,75,-545,-485,11,12,6,7,
520,325,-197,-81,815,842.3746337890625,14.644561767578125,67.64582061767578,-13.52459211133867,-5.517901135725857,170,-813,-651,19,15,12,13,
521,325,-247,-72,719,763.6452026367188,19.686674118041992,73.74556732177734,-18.8716125249283,-5.410146893994754,-247,-782,-753,16,12,14,8,
522,331,-162,-58,633,655.9702758789062,15.20516586303711,70.29814147949219,-14.29783579988059,-5.072639174242942,-656,-1292,1183,15,9,13,17,
523,331,-228,-103,782,821.0462646484375,17.73894691467285,65.68534851074219,-16.122650633564522,-7.206725420352241,107,404,1195,8,8,11,11,
524,331,-207,-142,719,761.5602416992188,19.243497848510742,55.54657745361328,-15.772025140396563,-10.74622548213202,-129,-203,-74,9,8,7,6,
525,331,-225,-80,726,764.2650146484375,18.205175399780273,70.42364501953125,-17.121592216546038,-6.0084844974676335,9,138,-381,18,13,15,16,
526,331,-218,-82,757,792.0208129882812,17.09981346130371,69.38311004638672,-15.976632081953893,-5.942631689655786,-103,-275,-388,8,9,8,10,
527,337,-236,-129,759,805.2440795898438,19.509950637817383,61.33503341674805,-17.042372220552227,-9.218498001350165,-106,-54,-353,8,6,6,6,
528,337,-234,-168,753,806.2189331054688,20.93246841430664,54.319881439208984,-16.872548633671034,-12.027439856219189,-20,-201,-434,6,8,5,5,
529,337,-240,-117,727,774.4791870117188,20.164337158203125,64.0073471069336,-18.05234060700363,-8.688897070166455,-2,-125,759,7,8,8,10,
530,337,-228,-74,686,726.6746215820312,19.258798599243164,72.01538848876953,-18.285853766750897,-5.844775650959569,-24,-318,757,8,8,8,7,
531,337,-220,-93,672,713.1851196289062,19.56468963623047,67.08155822753906,-17.967369793781735,-7.492761011815012,-40,-284,922,7,6,8,7,
532,338,-216,-133,753,794.577880859375,18.615026473999023,58.374114990234375,-15.773933094007445,-9.635781544035035,18,-250,767,11,8,8,7,
533,338,-228,-81,709,749.1502075195312,18.841154098510742,70.43851470947266,-17.718752804419346,-6.207097907684058,72,-161,-445,9,5,9,9,
534,338,-240,-84,741,783.4136962890625,18.937652587890625,70.70673370361328,-17.839495160902644,-6.155260824531026,190,-204,-1718,11,7,13,8,
535,338,-230,-111,731,774.3267822265625,19.255416870117188,64.23422241210938,-17.27943751517128,-8.241761883971588,9,-227,-636,7,5,5,6,
536,338,-226,-134,723,769.260009765625,19.969165802001953,59.331886291503906,-17.08492410781018,-10.031720825093867,-9,-298,1225,10,6,8,9,
537,342,-219,-111,741,780.6170654296875,18.330049514770508,63.118408203125,-16.292871260164045,-8.174893023011668,35,-197,853,4,6,6,5,
538,342,-207,-59,714,745.7385864257812,16.773916244506836,74.08804321289062,-16.11565579733689,-4.5377666206677,-124,-239,628,17,8,9,11,
539,342,-218,-102,740,778.1567993164062,18.014806747436523,64.92218017578125,-16.26910932052473,-7.531946942531819,-78,139,551,11,11,6,8,
540,342,-246,-140,719,772.7075805664062,21.485977172851562,60.352020263671875,-18.563837397303704,-10.438562427959194,10,-390,-944,6,13,7,6,
541,342,-219,-108,713,753.6537475585938,18.90277671813965,63.7463264465332,-16.892944239546914,-8.238957038200747,5,-279,-667,9,8,9,10,
542,344,-222,-98,742,780.674072265625,18.108034133911133,66.17799377441406,-16.521172356208083,-7.21151042611726,72,-569,-218,5,8,8,8,
543,344,-219,-67,741,775.5842895507812,17.172571182250977,72.986083984375,-16.401570958696126,-4.955757822891821,23,118,221,5,5,6,8,
544,344,-253,-139,723,778.4979248046875,21.763134002685547,61.21179962158203,-18.964655003678484,-10.285252778748962,121,-47,1323,8,7,8,7,
545,344,-211,-119,759,796.7201538085938,17.698955535888672,60.57430648803711,-15.357194841479547,-8.5899760529429,157,678,730,6,11,10,11,
546,344,-198,-111,723,757.7954711914062,17.42792510986328,60.721229553222656,-15.14627664854107,-8.422848196824647,-25,-231,462,8,10,12,11,
547,344,-218,-62,680,716.776123046875,18.43120002746582,74.12093353271484,-17.7064075850867,-4.962195286853044,-132,-220,-814,16,12,10,8,
548,344,-237,-92,706,750.3792114257812,19.801847457885742,68.78121948242188,-18.411549104455084,-7.0424495360603006,-60,-268,-435,7,11,6,6,
549,344,-228,-126,715,760.976318359375,20.01638412475586,61.0700569152832,-17.434486282672097,-9.530741419882478,-21,-683,-611,13,16,11,10,
550,344,-197,-141,733,771.9967651367188,18.286867141723633,54.403621673583984,-14.784394514441745,-10.52375983535138,21,-87,625,6,15,10,9,
551,344,-206,-81,729,761.8648071289062,16.888166427612305,68.53176879882812,-15.687426380328272,-6.1031117499752705,-185,-37,403,11,11,9,8,
552,353,-225,-95,699,740.4397583007812,19.25754165649414,67.10611724853516,-17.690402704611227,-7.37149029154438,61,59,446,10,8,9,10,
553,353,-221,-87,702,741.0897216796875,18.690134048461914,68.50888061523438,-17.350093217000314,-6.741766457670173,-17,-237,1063,9,13,11,9,
554,353,-220,-88,681,721.0443725585938,19.182748794555664,68.19529724121094,-17.764961186523895,-7.010151159321908,-16,-521,-474,7,12,9,9,
555,353,-207,-43,750,779.2291259765625,15.740531921386719,78.26187896728516,-15.4054107598771,-3.163345168381997,-24,-244,722,7,12,9,11,
556,353,-220,-87,753,789.28955078125,17.439544677734375,68.420166015625,-16.184521735520025,-6.3283268124215235,-49,50,-225,9,11,10,10,
557,350,-216,-179,795,843.0432739257812,19.4342098236084,50.347503662109375,-14.845567752381658,-12.258695948932115,-46,33,70,7,9,11,9,
558,350,-215,-141,697,742.9097900390625,20.246063232421875,56.73893356323242,-16.822191254857568,-10.940776166908481,36,-662,701,14,12,12,12,
559,350,-206,-49,699,730.368408203125,16.850934982299805,76.61698913574219,-16.382559987580617,-3.8468306631875104,40,-686,281,11,12,12,10,
560,350,-220,-51,759,791.8850708007812,16.567760467529297,76.94529724121094,-16.13002427274055,-3.692592007107119,-111,-142,1009,12,13,12,13,
561,350,-219,-216,801,858.031494140625,21.00567626953125,45.39116668701172,-14.787533808845023,-14.580442260018287,-172,18,-76,12,12,8,9,
562,348,-243,-123,792,837.5213623046875,18.97519302368164,63.149253845214844,-16.866449145152014,-8.445114277002958,-43,103,-352,6,12,9,9,
563,348,-197,-105,751,783.4762573242188,16.552453994750977,61.93912887573242,-14.562947151642073,-7.701845545898143,-31,-79,-568,6,11,8,7,
564,348,-230,-89,726,766.7444458007812,18.76030921936035,68.84245300292969,-17.455775995583576,-6.6656439502834255,96,-229,-369,13,9,10,10,
565,348,-232,-123,716,762.6329345703125,20.13817024230957,62.065216064453125,-17.710597262656442,-9.281394648301717,41,-293,758,11,10,11,11,
566,356,-228,-177,763,815.7708129882812,20.719388961791992,52.1734733581543,-16.229784686244514,-12.531287541797488,-18,-25,-68,9,16,9,7,
567,356,-206,-111,737,773.2567749023438,17.612831115722656,61.67916488647461,-15.450496038647534,-8.25324656257515,-18,-205,262,9,9,11,11,
568,356,-224,-86,726,764.622802734375,18.28651237487793,68.9935073852539,-17.034945376169485,-6.4579367810219654,106,-205,113,7,9,8,9,
569,356,-247,-104,673,724.3990478515625,21.711406707763672,67.16301727294922,-19.936121723823923,-8.254322113550133,159,-744,-117,7,6,9,7,
570,356,-210,-101,730,766.2904052734375,17.70164680480957,64.31124114990234,-15.905261570781649,-7.573840331902235,-100,-358,-297,8,10,9,8,
571,363,-206,-90,721,755.2330932617188,17.314922332763672,66.39645385742188,-15.828776235911725,-6.844117337249893,49,-750,809,9,10,10,7,
572,363,-235,-75,747,786.6759033203125,18.27238655090332,72.29639434814453,-17.38105780051541,-5.470766135262302,-55,-736,578,9,18,8,6,
573,363,-166,-102,798,821.440185546875,13.7182035446167,58.427433013916016,-11.658857820119144,-7.132951324292134,-302,-121,257,25,18,12,18,
574,363,-205,-78,765,795.8228149414062,15.996254920959473,69.16552734375,-14.927406742765276,-5.6246904084544465,-163,465,203,7,11,11,8,
575,363,-217,-111,717,757.2971801757812,18.773183822631836,62.905860900878906,-16.651245173176477,-8.428430943258546,36,-255,-117,10,10,12,11,
576,372,-189,-55,785,809.3027954101562,14.074531555175781,73.77159118652344,-13.505243451868326,-3.8968093071576435,-46,-321,122,11,10,14,13,
577,372,-249,-74,693,740.0851440429688,20.545902252197266,73.44550323486328,-19.66060084253182,-5.7385080976585146,206,-583,-91,15,17,15,18,
578,372,-225,-108,762,801.8310546875,18.133039474487305,64.35558319091797,-16.296480385156475,-7.740793896035829,140,819,568,18,11,15,16,
579,372,-229,-121,729,773.6427001953125,19.55722427368164,62.14525604248047,-17.217648358475415,-8.998171985010577,193,1607,-307,25,23,13,18,
580,372,-157,-201,891,926.7852783203125,15.971596717834473,37.98900604248047,-9.75309681096468,-12.525770392619545,-675,57,430,30,15,16,20,
581,372,-216,-87,689,727.2867431640625,18.67170524597168,68.05821228027344,-17.277161630189294,-6.870327767958801,645,-1603,286,11,18,13,13,
582,372,-239,-102,734,778.6405029296875,19.49325180053711,66.88493347167969,-17.875233355324713,-7.527241043037661,278,-566,-48,11,10,12,9,
583,372,-268,-118,699,757.858154296875,22.72797393798828,66.23281860351562,-20.709391784217065,-8.957509746522891,235,-799,616,12,15,10,11,
584,372,-164,-131,840,865.8273315429688,14.02742862701416,51.3790283203125,-10.918599910533857,-8.70229252408474,-496,-1305,616,15,18,12,15,
585,372,-190,-117,752,784.4061279296875,16.524585723876953,58.37207794189453,-14.017689780015688,-8.578101219855354,-182,-1008,-42,11,21,13,12,
586,371,-224,-168,699,752.9946899414062,21.827659606933594,53.1263542175293,-17.306240257738388,-12.89171388148614,-114,-401,-53,15,14,12,8,
587,371,-191,-152,787,823.9866333007812,17.22994613647461,51.483028411865234,-13.403060919794122,-10.630175989345464,97,-438,153,15,15,14,12,
588,371,-216,-96,724,761.6088256835938,18.078779220581055,66.03414916992188,-16.47578904370369,-7.241335912955279,275,787,138,9,13,14,11,
589,371,-171,-124,792,819.6834716796875,14.931048393249512,54.04868698120117,-12.0413238241628,-8.700990355030635,-272,-749,250,10,13,10,10,
590,371,-253,-82,717,764.736572265625,20.34926986694336,72.03875732421875,-19.319335922968783,-6.155458146529791,53,-126,39,12,9,9,14,
591,376,-198,-69,731,760.4774780273438,16.002702713012695,70.78411102294922,-15.091586871454531,-5.205746920874903,148,-374,496,11,13,12,12,
592,376,-201,-140,766,804.2120361328125,17.73107147216797,55.13843536376953,-14.473611745152082,-10.025324558087782,-341,454,244,11,12,14,12,
593,376,-203,-119,804,837.7266845703125,16.31110191345215,59.617313385009766,-14.023655083935724,-8.166552186206436,-256,472,-253,14,22,13,13,
594,376,-206,-83,753,785.0693969726562,16.43090057373047,68.05156707763672,-15.212349777512648,-6.068831001233455,25,-1004,-65,18,24,16,13,
595,376,-198,-87,752,782.4813232421875,16.042736053466797,66.2762451171875,-14.657547272931994,-6.3836165371339275,-22,215,447,14,16,16,17,
596,374,-199,-75,735,765.147705078125,16.135028839111328,69.3460922241211,-15.074839099151008,-5.625181391225091,218,-687,215,14,23,17,18,
597,374,-185,-51,747,771.2554931640625,14.405251502990723,74.58465576171875,-13.878787469658059,-3.791504382321266,-120,-48,633,19,13,14,16,
598,374,-195,-28,759,784.1492309570312,14.547945976257324,81.82587432861328,-14.399247047640554,-2.046323450567062,-233,750,753,22,28,22,16,
599,374,-230,-99,709,751.9188842773438,19.449905395507812,66.70793914794922,-17.81135902194064,-7.5657093499567925,12,994,22,13,18,18,14,
600,379,-202,-114,774,808.0074462890625,16.679983139038086,60.5579948425293,-14.477376229606481,-8.110798135547334,-60,529,844,9,14,10,12,
601,379,-212,-53,747,778.30712890625,16.303936004638672,75.960693359375,-15.806299669371755,-3.904664357073992,-88,1671,-2307,21,17,17,13,
602,379,-163,-238,836,884.3692626953125,19.035198211669922,34.40193176269531,-10.621031831902368,-15.611810427581034,-778,-194,388,23,20,16,12,
603,379,-237,-80,690,733.9407348632812,19.92445945739746,71.34454345703125,-18.83926472484198,-6.257709302912517,27,1205,634,27,18,14,9,
604,379,-200,-196,825,871.2296142578125,18.746580123901367,45.57475662231445,-13.2712046577829,-13.00107889345335,-146,-247,379,21,16,24,16,
605,385,-219,-141,768,810.966064453125,18.732112884521484,57.221500396728516,-15.667139966880665,-10.012713949098954,-43,585,584,16,17,16,16,
606,385,-239,-51,684,726.3456420898438,19.6588134765625,77.95136260986328,-19.210787416614526,-4.026307755342504,-47,-332,354,18,16,13,14,
607,385,-203,-114,760,794.8616333007812,17.029857635498047,60.67894744873047,-14.796717329829047,-8.245864481461842,-152,521,-176,14,13,13,13,
608,385,-207,-183,773,820.89404296875,19.666332244873047,48.517574310302734,-14.605609293737597,-12.881048120443843,-4,-462,-743,16,10,14,10,
609,385,-231,-186,792,845.7073974609375,20.52706527709961,51.15536117553711,-15.851446138040828,-12.705169690097597,-11,-584,-228,27,20,16,17,
610,384,-219,-129,695,740.0182495117188,20.08596420288086,59.49660873413086,-17.213831478812928,-10.039090311455492,196,-439,234,10,14,11,11,
611,384,-203,-197,790,839.1173706054688,19.69879722595215,45.85541534423828,-13.999938744894518,-13.57809422146286,-367,-362,146,18,12,11,9,
612,384,-199,-119,714,750.7050170898438,17.988706588745117,59.11743927001953,-15.37195327254688,-9.12086635586598,-218,-129,670,7,8,7,8,
613,384,-232,-158,738,789.5770874023438,20.82184410095215,55.7401123046875,-17.087283001457248,-11.543223194320955,-242,-1310,1538,18,8,9,11,
614,384,-279,-78,645,707.0714111328125,24.18501853942871,74.37749481201172,-23.240113649145705,-6.333426617554827,468,-352,592,21,12,11,13,
615,385,-202,-77,736,767.0912475585938,16.36641502380371,69.13047790527344,-15.267888622473833,-5.761006389793097,-243,1155,-887,17,12,13,8,
616,385,-147,-183,834,866.4028930664062,15.717082977294922,38.77000427246094,-9.768459492321037,-12.193747175953442,-693,-1178,-905,8,17,10,10,
617,385,-182,-111,755,784.5189819335938,15.765121459960938,58.6178092956543,-13.414218152602759,-8.1339581631237,123,196,-229,10,13,8,9,
618,385,-192,-129,738,773.4009399414062,17.400426864624023,56.100181579589844,-14.37422650580365,-9.601570029029155,-220,-244,1001,11,13,12,17,
619,385,-206,-105,772,805.8815307617188,16.67095375061035,62.98822021484375,-14.810368056085238,-7.48647243482363,-174,-565,1675,13,16,17,16,
620,393,-132,-257,834,882.626220703125,19.105175018310547,27.181373596191406,-8.601062849979735,-16.92840406684414,-228,-1859,1157,30,19,23,19,
621,393,-194,-75,747,775.416015625,15.556999206542969,68.86032104492188,-14.488653927157884,-5.55045536704557,-493,-16,-857,12,16,11,19,
622,393,-212,-74,704,738.9425048828125,17.688182830810547,70.75489807128906,-16.672243826958905,-5.747411535830797,183,-468,-642,9,12,11,11,
623,393,-222,-75,738,774.30810546875,17.61333656311035,71.32988739013672,-16.660946285040758,-5.558422374077407,-191,-139,2,12,12,10,9,
624,393,-240,-153,701,756.5778198242188,22.096189498901367,57.4788818359375,-18.494756221277786,-11.667182416352318,-300,-212,655,23,16,16,18,
625,398,-246,-111,833,875.62890625,17.949657440185547,65.71080780029297,-16.316370217198177,-7.282753139642276,367,767,517,13,11,14,14,
626,398,-235,-114,729,774.3784790039062,19.709882736206055,64.11827087402344,-17.666090072359182,-8.46555669652286,-154,897,529,13,20,13,13,
627,398,-184,-108,737,767.2607421875,16.14302635192871,59.58537673950195,-13.875573497424867,-8.091855374736692,-240,10,640,12,17,17,13,
628,398,-207,-94,669,706.5734252929688,18.76697540283203,65.57353210449219,-17.035441139304755,-7.645090987731903,99,729,598,9,11,10,11,
629,398,-197,-153,804,841.8040161132812,17.233989715576172,52.16153335571289,-13.533933891066184,-10.471855728546466,-312,-430,-172,17,11,12,12,
630,398,-345,-120,590,693.9200439453125,31.760271072387695,70.8177719116211,-29.813304529057895,-9.958253739111315,500,-815,-1550,13,17,13,15,
631,398,-264,-128,640,704.0454711914062,24.62611961364746,64.13023376464844,-22.022816522661316,-10.474997750381345,214,42,-944,13,17,12,12,
632,398,-218,-55,711,745.7009887695312,17.54575538635254,75.83706665039062,-16.99824235153347,-4.229754241045037,265,-213,1298,15,13,14,11,
633,398,-222,-96,706,746.2814331054688,18.908788681030273,66.61143493652344,-17.306002779886057,-7.390882796967455,-189,362,1703,18,13,15,20,
634,399,-170,-119,746,774.3235473632812,15.542532920837402,55.00428771972656,-12.682395816843522,-8.84039484797452,-247,-690,1236,16,9,8,7,
635,399,-214,-89,700,737.3717041015625,18.317535400390625,67.41484832763672,-16.87112674149421,-6.932443613953898,146,-1266,-808,18,12,11,15,
636,399,-247,-126,783,830.646728515625,19.49834632873535,62.969451904296875,-17.29902696089382,-8.724821182747226,-171,-1555,-707,22,15,18,21,
637,399,-264,-77,724,774.4682006835938,20.79644775390625,73.73666381835938,-19.930440701340043,-5.705948776054662,-14,-256,611,26,11,21,16,
638,399,-208,-174,701,751.6255493164062,21.146984100341797,50.08238983154297,-16.065348090204946,-13.385295690723979,79,-451,-847,21,10,11,15,
639,401,-148,-174,811,842.5562133789062,15.728421211242676,40.379520416259766,-10.116831563155216,-11.918165367002489,-288,153,-330,16,14,17,17,
640,401,-304,-63,607,681.787353515625,27.086301803588867,78.2889404296875,-26.48009155281113,-5.301932839629233,139,-400,1352,34,16,23,12,
641,401,-198,-112,776,808.6557006835938,16.336149215698242,60.501522064208984,-14.173017462418853,-7.961142073579834,-150,-248,559,10,17,9,11,
642,401,-207,-147,756,797.4923095703125,18.56137466430664,54.61602020263672,-15.044170971746027,-10.62194385327236,-66,-84,525,9,11,8,10,
643,401,-252,-123,759,809.1439819335938,20.2749080657959,63.97980499267578,-18.146047557060715,-8.743571852070437,37,-46,-876,12,20,12,10,
644,407,-232,-45,723,760.6431274414062,18.098676681518555,79.01992797851562,-17.758467594824705,-3.391625169561182,113,55,-1299,10,10,12,8,
645,407,-195,-95,753,783.619140625,16.067461013793945,64.02217864990234,-14.409197524711498,-6.963230826527405,-325,-95,-240,13,9,11,14,
646,407,-223,-139,774,817.3897705078125,18.750295639038086,58.060367584228516,-15.832122681443671,-9.790930562548224,-62,-70,1357,11,11,12,13,
647,407,-219,-150,800,842.8884887695312,18.35405158996582,55.58784866333008,-15.059432081671066,-10.250928018343238,-94,368,1081,10,13,15,16,
648,407,-248,-87,699,746.7757568359375,20.603742599487305,70.66557312011719,-19.395943187768285,-6.690198732906156,-85,324,415,8,8,10,10,
649,411,-222,-78,718,755.573974609375,18.14296531677246,70.63777923583984,-17.086575590122077,-5.925359004499029,25,251,-88,13,9,12,11,
650,411,-221,-128,700,745.1342163085938,20.04220962524414,59.917659759521484,-17.25295700921246,-9.891394071752739,122,-283,-717,10,10,11,15,
651,411,-205,-96,701,736.6423950195312,17.894018173217773,64.90325927734375,-16.158156145691116,-7.488144265565457,-115,-268,-236,9,8,10,9,
652,411,-241,-109,728,774.5618286132812,19.965469360351562,65.66024017333984,-18.128166503945152,-8.089785272883827,-277,-50,414,8,9,8,9,
653,411,-234,-114,732,776.9015502929688,19.572818756103516,64.02217864990234,-17.529479992936626,-8.437862991200795,5,-179,266,8,7,7,7,
654,405,-232,-151,689,742.5267944335938,21.88625144958496,56.93779373168945,-18.206738928306855,-11.733492649355108,38,-63,10,7,7,9,8,
655,405,-219,-135,714,758.9347534179688,19.812885284423828,58.34514236450195,-16.77190529651343,-10.246352359275814,-140,-421,708,9,8,10,9,
656,405,-210,-85,703,738.6027221679688,17.860036849975586,67.96046447753906,-16.51824407527105,-6.608364079963022,-129,-218,1069,12,7,13,10,
657,405,-228,-46,720,756.6372680664062,17.900785446166992,78.59046173095703,-17.53770072460965,-3.485464087561995,5,-37,-40,12,11,12,12,
658,405,-234,-132,729,776.9304809570312,20.22864532470703,60.56901931762695,-17.528805388816124,-9.78196809860485,-95,-199,-723,6,7,8,9,
659,414,-222,-109,752,791.624267578125,18.202730178833008,63.84595489501953,-16.286232302862533,-7.914290026351414,-51,213,-26,9,7,7,8,
660,414,-206,-139,720,761.6803588867188,19.040130615234375,55.98655319213867,-15.69132293043101,-10.514901476895613,-84,-415,-837,11,7,8,7,
661,414,-213,-75,706,741.2354736328125,17.73506736755371,70.59896087646484,-16.699854275122927,-5.807263757733125,-110,-275,163,9,6,8,9,
662,414,-235,-45,753,790.1006469726562,17.625795364379883,79.15672302246094,-17.303336323295568,-3.2650348200831494,-174,9,1127,11,10,11,11,
663,414,-190,-166,797,835.9814453125,17.56376838684082,48.85293197631836,-13.136855352117129,-11.453290349051583,-516,0,296,10,8,12,10,
664,416,-242,-119,791,835.7069091796875,18.823688507080078,63.81158447265625,-16.8325263838166,-8.18642497532406,-96,-153,-280,15,11,15,8,
665,416,-260,-87,729,778.8517456054688,20.608736038208008,71.49576568603516,-19.501088977107337,-6.413489933245875,40,-65,57,8,9,10,9,
666,416,-209,-74,735,767.712158203125,16.78385353088379,70.49939727783203,-15.797451042039787,-5.5313448122106745,-153,-22,-140,6,5,6,6,
667,416,-225,-159,705,756.9220581054688,21.34328269958496,54.748722076416016,-17.292896328244186,-12.12594218563971,-113,-271,-577,7,6,9,9,
668,416,-204,-138,777,815.1005859375,17.585372924804688,55.919151306152344,-14.493836356757953,-9.747369370502893,-27,276,1211,12,13,13,12,
669,414,-208,-170,762,807.96533203125,19.41738510131836,50.73679733276367,-14.918024149828462,-12.146091057802108,-142,84,319,7,8,10,10,
670,414,-219,-91,752,788.5087280273438,17.50127601623535,67.43256378173828,-16.125335910514035,-6.62714274290595,-40,-123,-144,9,9,12,12,
671,414,-262,-105,675,731.6378784179688,22.690673828125,68.15760040283203,-20.983595879605268,-8.251215527905078,100,-321,-32,5,5,7,7,
672,414,-205,-144,724,766.1181640625,19.084766387939453,54.91060256958008,-15.520477044635067,-10.833789127759854,-42,-411,-608,9,5,9,7,
673,422,-208,-96,687,724.1885375976562,18.439226150512695,65.22148895263672,-16.69147681977676,-7.617675475079632,-222,-358,-148,12,11,11,11,
674,422,-236,-46,708,747.7138671875,18.755704879760742,78.96749114990234,-18.398776029719844,-3.527113007813307,47,5,869,14,11,10,10,
675,422,-218,-106,757,794.8641357421875,17.75383758544922,64.0657730102539,-15.917961919409455,-7.66357318313246,-151,-458,200,8,13,10,8,
676,422,-216,-113,724,763.9378051757812,18.606393814086914,62.38029098510742,-16.4241346818701,-8.506279068404378,-113,2,177,7,7,7,7,
677,422,-204,-98,729,763.3223266601562,17.244829177856445,64.33733367919922,-15.500855006610267,-7.376342762947458,-146,-216,331,5,9,8,9,
678,431,-195,-111,740,773.2696533203125,16.865934371948242,60.34660720825195,-14.606309875019331,-8.253107572172414,-205,-463,280,9,7,8,10,
679,431,-243,-59,745,785.8466796875,18.552268981933594,76.34970092773438,-18.012267970056985,-4.305718866342122,-35,116,662,7,8,12,9,
680,431,-204,-123,750,786.9212036132812,17.618555068969727,58.90892028808594,-15.024861457642912,-8.99251040647253,-221,125,-52,10,11,13,11,
681,431,-217,-123,769,808.4423217773438,17.969036102294922,60.45103073120117,-15.57011548746699,-8.751220108127008,-70,-86,-347,8,8,9,9,
682,431,-210,-100,747,782.3739624023438,17.292922973632812,64.53325653076172,-15.569903125054534,-7.343412195063368,11,-89,-159,8,8,8,8,
683,427,-241,-115,681,731.4827270507812,21.408977508544922,64.48712158203125,-19.236475536317617,-9.045276968732324,97,-20,-101,14,11,12,9,
684,427,-190,-133,769,803.2122802734375,16.780752182006836,55.00428771972656,-13.683017158121926,-9.531226580610957,-361,-99,-146,10,11,12,13,
685,427,-210,-97,779,812.6192016601562,16.536354064941406,65.20416259765625,-14.976545796662109,-6.8555775456685915,-240,252,797,10,7,8,8,
686,427,-231,-155,811,857.3837890625,18.93052864074707,56.13490676879883,-15.630009923678445,-10.415342280927964,-90,-187,-627,12,8,10,10,
687,427,-232,-73,711,751.4479370117188,18.882333755493164,72.53038024902344,-17.98315025886375,-5.574835638973483,-43,-85,203,10,8,9,10,
688,437,-224,-144,705,753.615966796875,20.690536499023438,57.26115798950195,-17.291523699335162,-11.015745992115797,-18,-116,396,10,6,9,5,
689,437,-227,-96,693,735.52294921875,19.575817108154297,67.07279968261719,-17.976323210250325,-7.499606436661543,-144,-246,-169,9,6,10,7,
690,437,-206,-88,708,742.5927734375,17.55506706237793,66.86524200439453,-16.105472737995402,-6.805755569540517,-207,-283,-143,11,12,11,8,
691,437,-210,-90,736,770.646484375,17.243532180786133,66.7980728149414,-15.812995606423486,-6.706595633359802,-201,-127,461,9,6,10,10,
692,437,-219,-113,798,835.1849975585938,17.159334182739258,62.70363998413086,-15.201672625052076,-7.775930967024385,-388,239,93,10,6,10,10,
693,438,-239,-88,723,766.5468139648438,19.403390884399414,69.78299713134766,-18.167009333080888,-6.592121630099642,113,129,464,11,6,11,13,
694,438,-222,-94,673,714.8768920898438,19.706378936767578,67.04773712158203,-18.091955456638313,-7.5557696925533575,75,-254,458,8,6,8,8,
695,438,-221,-51,723,757.74072265625,17.41472816467285,77.0023422241211,-16.95715379790392,-3.8592296319875667,8,-266,-269,10,5,6,8,
696,438,-234,-112,760,803.056640625,18.844999313354492,64.41929626464844,-16.940991723387096,-8.017011987062677,-7,-128,76,13,9,9,9,
697,438,-234,-210,807,866.0859985351562,21.28426170349121,48.09015655517578,-15.675038517645353,-14.032376054704008,-74,-452,-370,10,12,11,8,
698,437,-242,-108,760,804.8776245117188,19.221149444580078,65.94634246826172,-17.49765844733659,-7.711315103298332,136,30,-683,9,9,8,10,
699,437,-227,-53,733,769.1729125976562,17.639318466186523,76.8549575805664,-17.164864537068755,-3.951106856994917,-96,-39,419,8,13,8,8,
700,437,-229,-88,727,767.2769775390625,18.644874572753906,68.97598266601562,-17.365013688584327,-6.58582025863904,-17,-52,663,7,7,8,9,
701,437,-220,-152,772,816.9993896484375,19.102771759033203,55.355369567871094,-15.62131099655066,-10.72216054234571,-189,-71,575,11,8,7,10,
702,437,-207,-124,762,799.2927856445312,17.569021224975586,59.07339859008789,-15.009484294697973,-8.924749938717499,-166,92,320,10,6,10,9,
703,430,-227,-113,737,779.4016723632812,18.984071731567383,63.53257751464844,-16.932749407726913,-8.336295074251717,-51,46,-413,14,6,8,7,
704,430,-246,-105,713,761.5182495117188,20.560792922973633,66.88245391845703,-18.846803939834963,-7.925331382152144,43,-101,-1072,10,7,6,7,
705,430,-226,-183,701,758.9242553710938,22.528486251831055,50.99790954589844,-17.324909771200648,-13.953290011204707,169,-53,94,16,7,11,11,
706,430,-234,-131,740,787.093994140625,19.91827964782715,60.75511932373047,-17.29527406295597,-9.580607157365236,-17,-176,-223,12,9,14,14,
707,430,-243,-71,684,729.3462524414062,20.30831527709961,73.70950317382812,-19.461603145459865,-5.586445125429367,-77,-527,381,9,9,13,11,
708,450,-222,-63,740,775.1470947265625,17.3177433013916,74.15380096435547,-16.642387597314887,-4.661850661317814,44,-155,606,11,7,8,11,
709,450,-219,-137,775,816.91796875,18.43205451965332,57.96750259399414,-15.55009309977108,-9.654322031120769,-126,69,665,12,9,11,8,
710,450,-226,-135,732,777.8978271484375,19.778146743774414,59.1446533203125,-16.889485008509432,-9.99397663755931,-28,-174,-93,10,5,5,8,
711,450,-219,-85,696,734.5760498046875,18.6486873626709,68.78410339355469,-17.345389533160258,-6.644751448505948,-142,-299,-248,9,7,7,8,
712,450,-225,-61,723,759.654541015625,17.8691349029541,74.8280029296875,-17.228744901799132,-4.605790387614704,-100,-174,-245,5,8,8,7,
713,439,-215,-96,744,780.3698120117188,17.55925941467285,65.93531799316406,-15.99243362999147,-7.066346911287123,-128,77,216,7,7,8,7,
714,439,-216,-168,794,839.8309326171875,19.013771057128906,52.12123489379883,-14.903665823750936,-11.539313430003187,-506,-36,494,12,8,10,13,
715,439,-198,-152,734,775.283203125,18.779830932617188,52.48362731933594,-14.796728586170392,-11.306500319294239,-89,-180,1146,14,9,10,12,
716,439,-215,-97,738,774.776123046875,17.722015380859375,65.71350860595703,-16.111025166430135,-7.192159032932539,-68,37,-103,12,7,10,8,
717,450,-234,-112,759,802.1103515625,18.868072509765625,64.41929626464844,-16.961583162886477,-8.026532675479787,-65,-53,272,8,8,7,7,
718,450,-241,-150,738,790.7117309570312,21.03694725036621,58.09798812866211,-17.74545261421464,-10.935423900198622,260,-176,-870,9,7,7,10,
719,450,-189,-131,756,790.2012329101562,16.916608810424805,55.269649505615234,-13.838123524948937,-9.542581475369285,-23,-222,-1132,6,7,8,6,
720,450,-261,-88,771,818.72216796875,19.65694808959961,71.364501953125,-18.58973234311187,-6.170332186017735,48,-228,31,9,5,9,8,
721,450,-228,-78,705,745.045654296875,18.86862564086914,71.11070251464844,-17.819631704521676,-6.009397088145731,-43,-156,148,8,7,7,7,
722,452,-220,-102,700,740.8130493164062,19.105113983154297,65.1224594116211,-17.275765086208423,-7.913999259630623,-68,-92,597,7,7,9,7,
723,452,-221,-106,731,770.998046875,18.534318923950195,64.37244415283203,-16.656990931135162,-7.902289974848337,-145,-214,1525,6,6,7,6,
724,452,-232,-63,708,747.701171875,18.752843856811523,74.80448913574219,-18.076370529785606,-4.833373489069064,-87,-219,-210,14,7,10,8,
725,452,-186,-71,736,762.4519653320312,15.134239196777344,69.10385131835938,-14.11977832339997,-5.343159743919837,-314,-395,-93,11,9,8,6,
726,452,-252,-130,694,749.6932983398438,22.2220458984375,62.70855712890625,-19.64172181339521,-9.98580873393683,241,-69,-1197,10,8,8,7,
727,455,-240,-136,704,756.1163940429688,21.395187377929688,60.457698822021484,-18.50645231501314,-10.361983196099228,508,71,-610,7,9,8,8,
728,455,-225,-92,682,724.0255737304688,19.615297317504883,67.75758361816406,-18.10518906155575,-7.30015769759242,-14,-504,1975,9,7,8,11,
729,455,-264,-77,697,749.2890014648438,21.52959442138672,73.73666381835938,-20.630140478969928,-5.898361299337062,182,-293,94,10,11,14,8,
730,455,-219,-92,746,782.9054565429688,17.660253524780273,67.20982360839844,-16.24392692216557,-6.7484764988162675,180,15,1070,6,10,5,6,
731,455,-200,-173,787,830.23974609375,18.570819854736328,49.13632583618164,-13.939327445318495,-12.027055220219133,-241,-224,-118,7,8,8,7,
732,449,-224,-96,710,750.6610717773438,18.942489624023438,66.7980728149414,-17.361748259436627,-7.347523399021052,-69,-107,-1274,6,5,5,8,
733,449,-207,-72,706,739.2354125976562,17.243818283081055,70.8177719116211,-16.261341766461285,-5.589351343730363,-116,-72,-422,8,5,5,7,
734,449,-225,-96,771,808.8770141601562,17.601144790649414,66.89033508300781,-16.15062296548399,-6.816104512671181,-12,-152,168,8,5,5,6,
735,449,-222,-165,803,849.304443359375,19.00476837158203,53.37493896484375,-15.15257799629321,-11.202469380334742,-256,-65,543,10,7,8,12,
736,449,-225,-136,762,806.0800170898438,19.033599853515625,58.845794677734375,-16.208204637377808,-9.713274167258787,-292,140,354,15,8,12,10,
737,453,-205,-86,723,756.406005859375,17.089487075805664,67.23802947998047,-15.724881501197842,-6.528392595476627,-58,151,797,8,7,8,10,
738,453,-252,-126,734,786.2162475585938,20.997173309326172,63.431514739990234,-18.694526431078966,-9.222060437417525,5,23,325,8,7,10,10,
739,453,-210,-103,686,724.779296875,18.825292587280273,63.86972427368164,-16.84259339886212,-8.170090439314887,54,-182,-913,7,6,8,10,
740,453,-235,-81,689,732.4663696289062,19.83565902709961,70.97869110107422,-18.713359330083197,-6.3490554945570565,336,58,-582,7,12,8,9,
741,453,-186,-54,738,762.991455078125,14.702824592590332,73.80766296386719,-14.109587232734425,-4.0584474981906,-95,-198,-586,7,8,8,6,
742,457,-210,-92,687,724.2465209960938,18.45298194885254,66.33865356445312,-16.855353269885757,-7.297918442378392,-73,110,1688,11,11,9,9,
743,457,-221,-129,705,750.004638671875,19.947362899780273,59.72389602661133,-17.13744039755665,-9.904061438421484,-78,-254,-157,9,9,10,8,
744,457,-217,-78,699,736.052978515625,18.25505828857422,70.22594451904297,-17.146488170365707,-6.0830916746794506,-64,-185,295,10,7,8,7,
745,457,-223,-91,736,774.4068603515625,18.118328094482422,67.79771423339844,-16.736002439353747,-6.748378215848645,-6,-232,975,9,7,7,8,
746,457,-209,-128,751,789.9784545898438,18.071470260620117,58.51144790649414,-15.341057243341064,-9.324728690886749,-136,-237,-440,9,9,8,7,
747,462,-218,-141,749,792.7206420898438,19.115680694580078,57.10203552246094,-15.96215145423636,-10.2456283261002,-163,-222,-668,12,9,7,9,
748,462,-235,-134,735,783.202392578125,20.204294204711914,60.30412292480469,-17.460615447521484,-9.851341171433285,-78,-113,-433,9,6,8,6,
749,462,-231,-103,709,752.7622680664062,19.630863189697266,65.96514129638672,-17.870690970314364,-7.864418054014071,-84,-342,-111,9,8,9,11,
750,462,-244,-104,722,769.1787719726562,20.16964340209961,66.91152954101562,-18.494972220820042,-7.770713480546021,95,-127,1468,10,8,10,15,
751,462,-234,-120,705,752.4500122070312,20.454198837280273,62.846858978271484,-18.118548087146632,-9.176658882455124,-56,-119,973,8,9,12,15,
752,477,-217,-101,712,751.1550903320312,18.579010009765625,65.03755950927734,-16.79141801368937,-7.727371137563077,-17,-272,111,8,10,10,11,
753,477,-217,-69,713,748.477783203125,17.70943260192871,72.35759735107422,-16.853272143682766,-5.289442144759234,-28,-216,-610,14,10,13,11,
754,477,-228,-98,753,792.841064453125,18.238767623901367,66.73743438720703,-16.712733977868687,-7.1002672662892055,-38,-123,-573,8,6,8,8,
755,477,-232,-116,731,775.6552124023438,19.53435707092285,63.431514739990234,-17.403673320178445,-8.600906371383322,61,-250,-142,117,143,99,151,
756,477,-238,-129,716,765.4678344726562,20.709033966064453,61.5380744934082,-18.114741140633555,-9.702035107266639,67,-243,634,40,48,37,38,
757,479,-216,-91,708,745.788818359375,18.315227508544922,67.15116119384766,-16.835579378339453,-7.008607509772951,-31,-275,711,19,18,21,18,
758,479,-216,-80,738,773.110595703125,17.331636428833008,69.6736068725586,-16.223849968236586,-5.9394892775908925,-77,-118,424,50,73,37,72,
759,479,-211,-111,734,771.7499389648438,17.99254608154297,62.24917221069336,-15.86696212998173,-8.269473185362079,-67,39,442,33,40,30,35,
760,479,-229,-205,798,855.1432495117188,21.062376022338867,48.16131591796875,-15.532883649110472,-13.870364135747643,8,-188,10,12,10,13,14,
761,483,-225,-117,730,772.7962036132812,19.155139923095703,62.52210235595703,-16.926846846537604,-8.707966219110832,108,-290,-509,12,7,7,7,
762,483,-234,-66,711,751.420654296875,18.87624740600586,74.24571228027344,-18.144231735926862,-5.038989318611404,91,28,-936,10,7,7,7,
763,483,-241,-144,701,755.1278076171875,21.823610305786133,59.1376838684082,-18.61160525769598,-10.993416206201784,99,-284,-211,20,19,11,20,
764,483,-227,-96,704,745.8961181640625,19.29266929626465,67.07279968261719,-17.717975632168354,-7.394722392308726,69,-162,818,24,37,20,24,
765,483,-216,-95,710,748.1851196289062,18.382097244262695,66.25604248046875,-16.780058998577474,-7.294761511051303,-12,-326,577,14,12,14,13,
766,474,-219,-78,750,785.2037963867188,17.2196044921875,70.3926773071289,-16.195070418491454,-5.701008722368704,-13,-104,304,9,11,11,10,
767,474,-211,-151,759,802.1240844726562,18.870941162109375,54.40726852416992,-15.251209444470682,-10.85068444776492,-38,-142,181,38,38,38,37,
768,474,-271,-136,732,792.313720703125,22.49846649169922,63.347007751464844,-20.000981539348636,-9.883719943222275,47,-127,-134,12,13,11,11,
769,474,-232,-114,740,783.8494873046875,19.253162384033203,63.828033447265625,-17.21602343950409,-8.362532794193921,45,-138,-749,10,17,7,10,
770,474,-200,-67,714,744.503173828125,16.455598831176758,71.4759521484375,-15.583088340177305,-5.163198545841015,40,-286,-898,13,7,13,8,
771,479,-221,-143,702,749.7293090820312,20.552562713623047,57.09113693237305,-17.143929930398325,-10.995711024045228,-47,-381,653,8,7,8,8,
772,479,-224,-104,735,775.3818359375,18.570629119873047,65.09184265136719,-16.791508967871028,-7.708168395753256,-30,-397,1418,8,7,10,9,
773,479,-232,-81,717,757.9406127929688,18.915754318237305,70.75074768066406,-17.823907954406938,-6.134831194014241,39,-185,582,8,7,6,5,
774,479,-221,-56,748,781.9725341796875,16.94866371154785,75.77782440185547,-16.41655521681775,-4.106682158499714,-21,142,-11,9,6,9,9,
775,479,-226,-84,699,739.4139404296875,19.028736114501953,69.60758209228516,-17.797121054629297,-6.523082572316608,-61,-178,27,9,9,7,9,
776,486,-222,-89,692,732.1673583984375,19.0645751953125,68.15081024169922,-17.650468111235398,-6.981964931651331,-49,-291,-263,10,7,8,6,
777,486,-233,-82,724,764.9764404296875,18.836071014404297,70.60820770263672,-17.733170096161505,-6.1535201946831695,33,-256,830,8,8,6,6,
778,486,-237,-58,720,760.2190551757812,18.71840476989746,76.2454605102539,-18.164861101788528,-4.375564608099021,-57,-365,-582,13,13,10,13,
779,486,-226,-66,762,797.543701171875,17.167762756347656,73.71719360351562,-16.461442760025836,-4.746888216118217,7,92,1001,8,13,8,9,
780,486,-220,-132,697,742.719970703125,20.206329345703125,59.03267288208008,-17.230020294434404,-10.237282326404912,-182,-223,60,8,8,7,7,
781,479,-210,-96,732,767.5545654296875,17.505252838134766,65.42945098876953,-15.878373497007088,-7.184945028323406,-73,-263,395,8,6,9,9,
782,479,-218,-108,732,771.3702392578125,18.38251304626465,63.64216232299805,-16.416276957399013,-8.04845918541428,-19,-542,211,14,10,12,11,
783,479,-202,-45,726,754.9205322265625,15.908409118652344,77.43814086914062,-15.520184631982774,-3.4173655670763763,-164,-289,-99,8,9,11,14,
784,479,-210,-141,767,807.63232421875,18.249635696411133,56.11780548095703,-15.071207616866031,-10.054473103875326,-21,9,824,11,10,12,14,
785,479,-196,-223,826,877.7362670898438,19.7680721282959,41.30891799926758,-12.903031662343402,-14.718049288813237,119,-50,-245,10,9,8,7,
786,488,-221,-185,814,863.5172119140625,19.49536895751953,50.06332015991211,-14.828701490160284,-12.370948323039503,9,-293,-232,14,8,10,8,
787,488,-223,-111,750,790.2847290039062,18.370819091796875,63.53437805175781,-16.390164150724125,-8.07421656521658,-34,-100,269,9,8,8,6,
788,488,-219,-55,730,764.1243286132812,17.185535430908203,75.89913940429688,-16.65466586598332,-4.1275943038520015,-16,-285,428,11,8,9,7,
789,488,-228,-192,807,860.2888793945312,20.270174026489258,49.8952522277832,-15.368571817364835,-12.89592800690451,-58,31,90,11,12,10,9,
790,488,-226,-154,807,852.0803833007812,18.718711853027344,55.72519302368164,-15.380809346007979,-10.41252310170492,-91,270,-782,12,11,11,8,
791,486,-216,-97,745,781.7224731445312,17.629484176635742,65.81301879882812,-16.04026978140898,-7.127916469947447,-148,2,218,10,9,7,7,
792,486,-241,-99,694,741.2947998046875,20.575109481811523,67.66439819335938,-18.97204682008084,-7.674787831656746,81,-47,-246,13,8,8,8,
793,486,-221,-108,709,750.4572143554688,19.131410598754883,63.95238494873047,-17.126787176543754,-8.274296361318676,-96,-189,-177,7,9,7,6,
794,486,-198,-132,737,774.4656372070312,17.892372131347656,56.30628204345703,-14.812705869208118,-9.81340852094439,-99,-550,528,12,13,11,12,
795,486,-207,-60,781,810.1913452148438,15.424872398376465,73.83236694335938,-14.80293024861162,-4.24701760870238,-145,-219,88,15,11,12,11,
796,498,-219,-114,735,775.3592529296875,18.565670013427734,62.49739074707031,-16.406465504325023,-8.454769506277092,-51,-383,-279,8,9,6,6,
797,498,-216,-135,744,786.3949584960938,18.89716911315918,57.991024017333984,-15.942417645274698,-9.884899594109784,87,-274,223,12,8,11,10,
798,498,-220,-139,771,813.7333984375,18.64876937866211,57.71095275878906,-15.68562027012769,-9.83536075614541,-24,74,537,9,6,8,8,
799,498,-226,-71,750,786.5220947265625,17.526775360107422,72.55623626708984,-16.698828986915455,-5.1791877828702635,-7,-64,52,8,5,6,4,
800,498,-211,-78,759,791.635009765625,16.506820678710938,69.70899200439453,-15.45829992096306,-5.654542301072624,-103,-78,-10,9,9,7,5,
801,497,-227,-271,823,895.71142578125,23.24346351623535,39.94670486450195,-14.68056508976678,-17.61099444787042,-395,129,-68,13,10,8,12,
802,497,-224,-104,753,792.4651489257812,18.15610694885254,65.09184265136719,-16.41916208460056,-7.541025120298146,-22,1264,-349,16,15,10,8,
803,497,-210,-89,758,791.5712280273438,16.744304656982422,67.02896881103516,-15.38449092882275,-6.455679162624646,3,-197,162,11,8,10,9,
804,497,-220,-64,721,756.5296020507812,17.627134323120117,73.77667236328125,-16.90595184231229,-4.8528411247405705,-15,-265,390,12,9,7,11,
805,505,-235,-78,690,733.0818481445312,19.738454818725586,71.6350326538086,-18.697065479586684,-6.107839702621765,176,-562,641,7,10,7,8,
806,505,-170,-129,772,800.9525756835938,15.45015811920166,52.80416488647461,-12.254081057289303,-9.268324907186221,-211,232,106,12,9,6,8,
807,505,-210,-171,738,786.1202392578125,20.148983001708984,50.840755462646484,-15.493836519480983,-12.563646001993153,-13,-102,-123,6,7,8,6,
808,505,-231,-73,729,768.1998291015625,18.380491256713867,72.45938873291016,-17.499832001785144,-5.452894316255998,87,538,-995,7,11,10,7,
809,505,-219,-58,717,751.940185546875,17.532812118530273,75.16323852539062,-16.93260175940762,-4.423835177706403,-31,-576,-118,11,9,10,8,
810,501,-250,-105,786,831.4571533203125,19.03135871887207,67.21426391601562,-17.498266742146715,-7.25492958808654,-29,743,680,16,12,6,7,
811,501,-214,-102,745,781.8087768554688,17.64938735961914,64.51246643066406,-15.886000124269671,-7.496560898632676,2,558,545,7,12,9,8,
812,501,-222,-53,726,761.0315551757812,17.449892044067383,76.56956481933594,-16.960318884296697,-3.99344339012822,-1,164,210,7,12,9,8,
813,501,-185,-117,756,787.0514526367188,16.14569664001465,57.6858024597168,-13.594836334074971,-8.549053585029792,-343,753,-517,7,7,10,8,
814,501,-268,-222,721,800.5928955078125,25.76335906982422,50.35923767089844,-19.55745211304644,-16.09879746905275,-351,-1757,675,28,20,8,13,
815,501,-165,-251,849,900.5703735351562,19.481714248657227,33.315406799316406,-10.557210124220845,-16.183363099046236,-781,-1588,-617,17,20,7,12,
816,501,-209,-98,715,751.3388061523438,17.890377044677734,64.87474822998047,-16.151021624388367,-7.494662559109343,47,2129,101,9,9,7,8,
817,501,-208,-42,692,723.8038330078125,17.045717239379883,78.58116912841797,-16.70060760966531,-3.326557695402003,36,772,308,6,11,10,9,
818,501,-255,-78,794,837.5828247070312,18.5623779296875,72.98889923095703,-17.724927339907126,-5.3434185647643675,135,-284,668,21,16,18,11,
819,501,-221,-136,744,787.9549560546875,19.225759506225586,58.38890838623047,-16.288430170913923,-9.938947494907733,-59,354,1130,11,11,15,12,
820,507,-274,-187,709,782.7681884765625,25.0722599029541,55.683502197265625,-20.48974854987021,-13.82137672350436,-275,-1436,-216,18,16,8,7,
821,507,-240,-55,754,793.18408203125,18.082515716552734,77.08955383300781,-17.612505565132164,-3.9761244398508118,153,1565,-173,7,6,8,8,
822,507,-240,-96,677,724.6688842773438,20.8955020904541,68.19529724121094,-19.340760669936795,-7.612595829234158,11,-107,-459,7,9,10,7,
823,507,-204,-105,856,886.2149658203125,15.00226879119873,62.76139831542969,-13.308402432207611,-6.80446847094993,-343,545,-1015,12,14,10,10,
824,507,-239,-112,576,633.5936889648438,24.616809844970703,64.8879165649414,-22.161176719265352,-10.181644430162931,360,-447,1620,15,10,7,8,
825,514,-245,-63,698,742.4271240234375,19.9195499420166,75.5761489868164,-19.268698376545203,-4.867791292065896,62,-736,833,10,11,9,11,
826,514,-190,-54,780,804.6216430664062,14.208420753479004,74.13117218017578,-13.658585427757153,-3.8481432673727918,-71,70,1158,13,11,9,14,
827,514,-211,-119,800,835.8720092773438,16.844398498535156,60.57430648803711,-14.621412660761674,-8.184796784444664,299,707,-50,12,24,9,11,
828,514,-188,-43,743,767.6209716796875,14.54849910736084,77.11368560791016,-14.176664488137517,-3.2112316326675283,-131,344,-939,10,12,9,9,
829,514,-267,-55,749,797.0664672851562,19.99740982055664,78.35731506347656,-19.571219908937255,-3.9567263339794874,-3,169,-164,16,16,14,8,
830,511,-238,-57,720,760.455810546875,18.770971298217773,76.52853393554688,-18.238320110360494,-4.298639488284499,321,-451,-675,22,18,17,15,
831,511,-181,-157,754,791.1548461914062,17.626922607421875,49.057655334472656,-13.225225608922981,-11.445988037077136,-339,-812,564,14,12,9,13,
832,511,-252,-87,716,764.0216064453125,20.420244216918945,70.95015716552734,-19.258676506484868,-6.538517655960268,182,88,583,13,23,12,8,
833,511,-215,-159,718,766.1788330078125,20.424882888793945,53.51205062866211,-16.296814109551747,-11.97725377084882,148,-394,1146,16,14,11,11,
834,511,-170,-202,810,851.9412841796875,18.050979614257812,40.07931137084961,-11.510309954622366,-13.715769377390684,-312,560,134,7,15,7,7,
835,510,-228,-151,782,828.4376831054688,19.27284812927246,56.48060607910156,-15.974936669295797,-10.502055519244074,-48,-150,-857,7,11,8,8,
836,510,-193,-179,771,814.6968994140625,18.84850311279297,47.15135955810547,-13.703525446168834,-12.692213092019864,-341,93,-565,9,8,8,9,
837,510,-240,-171,768,822.5964965820312,20.99018669128418,54.52642059326172,-16.963299127766746,-11.998046834971403,-94,-311,-432,6,11,7,6,
838,510,-192,-144,722,760.84423828125,18.385211944580078,53.1263542175293,-14.616690619757435,-10.909802264099707,43,-336,486,14,10,10,14,
839,510,-249,-90,702,750.2699584960938,20.662395477294922,70.12458038330078,-19.382956695465044,-6.889610737649444,-92,-661,1109,6,6,8,7,
840,519,-226,-81,714,753.281494140625,18.582719802856445,70.27872467041016,-17.458843284393293,-6.1729229543908435,-143,-16,835,12,9,10,9,
841,519,-226,-195,747,804.4314575195312,21.779417037963867,49.20746994018555,-16.31653905353374,-14.02866026114483,-64,-545,694,8,7,5,7,
842,519,-286,-69,619,685.3597412109375,25.419462203979492,76.43303680419922,-24.664184437090857,-5.778159451074403,165,-451,-605,26,16,16,10,
843,519,-184,-87,741,768.4439086914062,15.356527328491211,64.69059753417969,-13.853782655494982,-6.500726639176526,-107,67,-871,17,13,12,13,
844,530,-274,-108,765,819.7347412109375,21.054119110107422,68.48430633544922,-19.52720962116443,-7.57072642342449,152,114,-612,8,13,9,11,
845,530,-186,-120,719,752.3011474609375,17.10928726196289,57.16782760620117,-14.314333369963318,-9.178490409136637,-187,11,-71,11,16,13,12,
846,530,-189,-229,786,840.2130737304688,20.69261360168457,39.52965545654297,-12.99952300816955,-15.816058135333973,-398,-572,916,7,9,8,8,
847,530,-219,-83,740,776.176513671875,17.55979347229004,69.2402572631836,-16.38870339437578,-6.13862924165743,-367,-869,1903,9,10,13,11,
848,530,-192,-186,854,894.8609008789062,17.37908172607422,45.90541458129883,-12.389626192130951,-11.996593637081439,-361,51,577,9,13,12,13,
849,543,-271,-101,781,832.8283081054688,20.317855834960938,69.55663299560547,-18.989640863299964,-6.965605261363855,304,818,-701,15,14,9,11,
850,543,-255,-62,714,760.7003173828125,20.178728103637695,76.33136749267578,-19.585759379679672,-4.67501186205679,216,341,-1194,9,13,6,10,
851,543,-221,-123,674,719.89306640625,20.566879272460938,60.89787673950195,-17.877929992868914,-9.837750217975756,-191,-255,-922,5,9,7,6,
852,543,-263,-139,697,757.8251953125,23.11033821105957,62.139312744140625,-20.30672549758009,-10.569006260147084,505,-1048,631,10,13,11,10,
853,543,-273,-114,759,814.6201782226562,21.29302406311035,67.33211517333984,-19.58017065461298,-8.044520312979188,610,624,1830,13,11,14,12,
854,526,-294,-157,641,722.47216796875,27.47077178955078,61.89369201660156,-24.012510419207914,-12.551051040874754,202,-1068,146,14,21,9,15,
855,526,-254,-62,601,655.4090576171875,23.508878707885742,76.27959442138672,-22.80178132526352,-5.4281490183912435,455,-17,226,14,15,10,10,
856,526,-279,-105,603,672.66259765625,26.3044490814209,69.37320709228516,-24.50480740180382,-8.980370986684628,639,-312,88,15,10,6,7,
857,526,-141,-94,838,854.9625854492188,11.429906845092773,56.30628204345703,-9.492558097458886,-6.312221934305699,-669,-1120,404,22,26,8,10,
858,526,-211,-132,810,847.3753662109375,17.078393936157227,57.96661376953125,-14.41859206371739,-8.961753542206482,-203,-289,-114,15,17,11,11,
859,536,-252,-96,744,791.3634033203125,19.92123031616211,69.14227294921875,-18.568474869857003,-6.967691148103774,-104,650,-1209,15,19,19,13,
860,536,-243,-112,709,757.8086547851562,20.673904418945312,65.25138854980469,-18.702928802688692,-8.499139577491965,400,-1102,597,17,16,18,16,
861,536,-230,-109,724,767.4353637695312,19.36696434020996,64.63971710205078,-17.439556277735495,-8.165418066788673,-85,57,1438,14,18,13,15,
862,536,-242,-75,712,755.7333984375,19.585330963134766,72.77772521972656,-18.67615361816888,-5.695485364400501,45,1495,-292,16,20,18,22,
863,536,-242,-64,756,796.3642578125,18.318151473999023,75.1834487915039,-17.690857793337624,-4.609559817722606,105,-217,458,17,24,14,21,
864,533,-210,-93,798,830.393310546875,16.054107666015625,66.11013793945312,-14.648725098575088,-6.430338649190984,-446,-856,417,13,11,9,13,
865,533,-251,-102,731,779.593505859375,20.334373474121094,67.8811264038086,-18.7816604842266,-7.517986276947064,-100,-407,-960,19,17,13,9,
866,533,-156,-85,799,818.5120849609375,12.533260345458984,61.411781311035156,-10.987202629772183,-5.960739795776478,-209,13,-924,10,15,14,13,
867,533,-231,-127,772,815.765869140625,18.851043701171875,61.19521713256836,-16.44946024982628,-8.956347419781414,-223,168,964,20,20,14,13,
