step,tof,accX,accY,accZ,acc,incl,orient,roll,pitch,gyroX,gyroY,gyroZ,mic0,mic1,mic2,mic3,
0,27,-222,-88,732,769.9688110351562,18.06610870361328,68.3735122680664,-16.75760460240919,-6.562694693163288,-47,-81,148,5,6,6,5,
1,27,-222,-91,738,776.021240234375,18.007450103759766,67.70748138427734,-16.623095432198287,-6.734274178364398,-38,-135,136,8,7,7,6,
2,27,-224,-89,730,768.7633056640625,18.270200729370117,68.32772064208984,-16.94041752447244,-6.648059981618877,-48,-114,153,6,6,6,6,
3,25,-223,-90,733,771.4389038085938,18.16108512878418,68.018310546875,-16.8022983267121,-6.699674932209599,-43,-75,145,5,5,5,5,
4,25,-223,-88,735,773.1093139648438,18.062673568725586,68.46158599853516,-16.764920943017948,-6.535919647591088,-56,-123,143,6,3,2,2,
5,25,-222,-90,738,775.9046630859375,17.980934143066406,67.92879486083984,-16.625666684258643,-6.660939788192266,-44,-168,123,4,3,3,4,
6,25,-235,-66,776,813.4844970703125,17.458921432495117,74.30943298339844,-16.790959519855747,-4.653662737483237,56,4633,681,12,6,9,6,
7,25,-219,-138,730,774.5353393554688,19.522096633911133,57.77985763549805,-16.424412218233314,-10.263263599711387,-164,5970,953,40,13,6,9,
8,27,-193,-87,828,854.6356201171875,14.339871406555176,65.73185729980469,-13.051527773992039,-5.842703640448386,6,1519,-723,40,43,44,37,
9,27,-260,-225,650,735.340087890625,27.876224517822266,49.12372970581055,-20.706312866474033,-17.81718589874457,-32,-114,-144,24,30,20,21,
10,27,-214,-87,724,759.961181640625,17.6943302154541,67.87288665771484,-16.355322639792334,-6.57360612643895,-65,-39,1024,12,12,12,11,
11,27,-230,-84,714,754.8192138671875,18.92679214477539,69.93368530273438,-17.740641681519257,-6.3893914450831435,-50,-396,719,11,8,8,8,
12,27,-230,-78,708,748.4971313476562,18.93147850036621,71.263427734375,-17.89553105730261,-5.981584765137251,48,-185,-1323,11,12,8,6,
13,27,-220,-86,672,712.3060913085938,19.364778518676758,68.64573669433594,-17.990299816292243,-6.934500822477449,-132,-14,809,13,10,11,9,
14,27,-220,-53,698,733.7662963867188,17.960750579833984,76.45197296142578,-17.446971029331497,-4.142085795161123,33,-251,134,13,11,10,11,
15,27,-224,-86,731,769.371826171875,18.169658660888672,68.9935073852539,-16.926614538917345,-6.4179063126688485,23,-190,1187,7,9,9,7,
16,27,-227,-106,711,753.8474731445312,19.408445358276367,64.96589660644531,-17.525001020384323,-8.083261609589217,-17,-249,-925,16,12,10,9,
17,27,-241,-45,731,771.016845703125,18.538484573364258,79.42044830322266,-18.214434091238388,-3.345939959209908,124,-332,8,13,14,9,9,
18,38,-229,-44,732,768.2454223632812,17.667869567871094,79.12078094482422,-17.342430085325287,-3.283318819972812,89,-303,569,13,16,12,9,
19,38,-213,-111,766,802.77392578125,17.407228469848633,62.471309661865234,-15.386561649287751,-7.947783178566398,-100,187,33,14,13,9,7,
20,38,-250,-124,679,734.1096801757812,22.340211868286133,63.61515426635742,-19.910299717836995,-9.724571878586449,89,-343,123,10,9,9,7,
21,38,-207,-160,728,773.5845336914062,19.765277862548828,52.29410934448242,-15.520640495179716,-11.936609810780567,-41,-785,1065,18,13,11,10,
22,29,-224,-64,737,772.9430541992188,17.539451599121094,74.05148315429688,-16.84606760712834,-4.749551423135638,-15,-165,513,8,10,9,7,
23,29,-229,-123,753,796.6046752929688,19.043031692504883,61.75547409057617,-16.706553254559246,-8.882308477421002,-37,518,-255,6,10,8,6,
24,29,-222,-130,758,800.4673461914062,18.74492645263672,59.64381790161133,-16.101390963076522,-9.346525777923405,-17,38,-1316,8,11,5,6,
25,29,-217,-117,767,805.64697265625,17.816499710083008,61.66427230834961,-15.62551754539626,-8.350303077049267,-146,-371,63,15,8,10,6,
26,29,-234,-119,673,722.3890991210938,21.307485580444336,63.04107666015625,-18.900468670519786,-9.48161792472669,28,-142,-205,9,6,9,8,
27,29,-220,-99,723,762.1876220703125,18.450584411621094,65.76889038085938,-16.776721853909432,-7.463193984193972,111,-405,183,7,8,8,6,
28,29,-209,-105,730,766.5546264648438,17.76341438293457,63.32195281982422,-15.821931343740935,-7.87292912516836,22,-387,772,10,11,11,10,
29,29,-219,-96,738,775.771240234375,17.950559616088867,66.32611083984375,-16.397507190440976,-7.108449838169661,-60,90,422,9,10,8,7,
30,29,-243,-92,722,767.3311157226562,19.790666580200195,69.2600326538086,-18.462388916203963,-6.88610588172621,101,-234,-206,8,7,9,9,
31,29,-228,-128,732,777.2979125976562,19.654817581176758,60.68647384643555,-17.057054659531918,-9.47824081940912,2,-292,-529,13,10,9,9,
32,25,-229,-101,699,742.4573974609375,19.698333740234375,66.19686126708984,-17.964953773945616,-7.81845811943646,2,-392,-139,7,15,9,9,
33,25,-206,-92,723,757.3829956054688,17.328248977661133,65.9310073852539,-15.782670607713968,-6.97700045845839,-120,-372,298,6,9,9,8,
34,25,-208,-81,732,765.277099609375,16.956335067749023,68.7196273803711,-15.771225840149357,-6.075796186195469,-75,-2,-66,7,7,8,8,
35,25,-224,-111,729,770.6737060546875,18.926143646240234,63.63650894165039,-16.897160511468105,-8.281102347856718,-44,258,769,8,8,8,8,
36,25,-233,-102,746,788.1681518554688,18.824678421020508,66.3543701171875,-17.194851227343573,-7.435731653062042,-68,-162,1030,7,10,9,8,
37,28,-219,-108,720,760.279541015625,18.731861114501953,63.7463264465332,-16.74136436400633,-8.166662620541528,-28,-358,63,7,8,8,9,
38,28,-225,-84,742,779.900634765625,17.9334774017334,69.52445983886719,-16.76807221775089,-6.183094981006008,-35,-83,-562,8,9,9,9,
39,28,-211,-99,757,792.0675659179688,17.110790252685547,64.86089324951172,-15.44964769790953,-7.180140179596243,-47,22,-733,8,9,10,11,
40,28,-208,-148,736,779.0147705078125,19.126916885375977,54.56298828125,-15.486060481528982,-10.951824942290221,-23,-238,822,7,10,8,9,
41,28,-231,-108,727,770.424560546875,19.326568603515625,64.93898010253906,-17.44767382548696,-8.058403817062185,72,-217,339,8,8,10,8,
42,30,-234,-127,738,784.5565795898438,19.835447311401367,61.50627136230469,-17.352983815703464,-9.31573778359922,-114,-342,863,7,8,7,6,
43,30,-233,-129,717,764.8653564453125,20.375267028808594,61.02546691894531,-17.735832002833142,-9.709751364434327,-20,-415,1094,6,5,5,6,
44,30,-212,-118,742,780.6612548828125,18.105152130126953,60.896018981933594,-15.757393771973945,-8.693803128533064,16,-50,-586,5,6,7,5,
45,30,-210,-100,750,785.2388305664062,17.227842330932617,64.53325653076172,-15.511665266164169,-7.316473631490194,4,51,-757,5,10,6,3,
46,30,-225,-90,731,770.1207885742188,18.33866310119629,68.19529724121094,-16.987434337271228,-6.711194842244215,21,-220,-610,7,10,5,5,
47,36,-212,-135,749,790.0443115234375,18.547582626342773,57.50770568847656,-15.565474280830431,-9.838784130015942,-135,-236,647,7,9,8,6,
48,36,-221,-90,726,764.2100219726562,18.192649841308594,67.83858489990234,-16.80931958110568,-6.763343528427403,71,-342,871,7,11,11,10,
49,36,-224,-77,725,762.7122802734375,18.09062385559082,71.02638244628906,-17.078924799106375,-5.7941952010537285,24,-98,521,8,7,7,10,
50,36,-240,-71,735,776.4444580078125,18.802610397338867,73.51688385009766,-18.00507962582491,-5.246596817612866,223,-81,522,6,10,9,8,
51,36,-200,-147,770,809.017333984375,17.864742279052734,53.680381774902344,-14.312682553218561,-10.468907716153293,32,-284,46,8,6,8,11,
52,40,-227,-131,750,794.4746704101562,19.259897232055664,60.00754928588867,-16.602094246931642,-9.490776537536874,218,-253,-333,7,5,6,8,
53,40,-223,-82,717,755.34228515625,18.33197593688965,69.80762481689453,-17.17135277815031,-6.232315526351605,-35,-241,-476,7,8,8,7,
54,40,-224,-79,712,750.5737915039062,18.446548461914062,70.57012176513672,-17.363830879243732,-6.041732253900803,-57,-71,-755,6,6,7,7,
55,40,-205,-183,786,832.6524047851562,19.268354415893555,48.24136734008789,-14.25283080066016,-12.696087550579955,-205,150,1143,9,6,6,8,
56,40,-213,-106,730,767.7922973632812,18.049449920654297,63.539215087890625,-16.106209640092306,-7.935496574399192,98,-72,768,8,12,8,9,
57,40,-204,-126,730,768.3696899414062,18.18109893798828,58.294979095458984,-15.396498230436954,-9.438192558010574,-28,-98,599,6,8,9,8,
58,40,-227,-111,706,749.8572998046875,19.690799713134766,63.93854904174805,-17.621302023286454,-8.512672847557987,-181,6,96,9,9,12,13,
59,40,-222,-103,735,774.6728515625,18.41392707824707,65.10700988769531,-16.652872763974695,-7.640635758129632,-65,-88,-355,5,12,8,6,
60,40,-221,-79,722,759.187744140625,18.00530433654785,70.32652282714844,-16.923858676129587,-5.972930313321912,-95,-127,-99,5,8,6,6,
61,47,-202,-74,744,774.4779052734375,16.125062942504883,69.87712097167969,-15.118775483580272,-5.482875255081605,-42,-198,-439,8,6,9,6,
62,47,-221,-107,739,778.7239379882812,18.377479553222656,64.16204071044922,-16.486989540289144,-7.897670491377574,-69,87,843,8,9,10,12,
63,47,-217,-165,723,772.685546875,20.656822204589844,52.748016357421875,-16.310266324742123,-12.329941204985206,-123,-183,1109,7,13,12,10,
64,47,-234,-99,726,769.1768188476562,19.286603927612305,67.06456756591797,-17.711323470226954,-7.394998168305979,-45,-58,93,13,10,11,11,
65,47,-228,-83,727,766.4215698242188,18.454416275024414,69.99347686767578,-17.30669369954783,-6.217067509399592,-84,-113,118,10,13,10,11,
66,45,-207,-93,741,774.9703369140625,17.025089263916016,65.80342102050781,-15.492188924704777,-6.892367797367535,-132,-151,-481,11,12,12,11,
67,45,-221,-126,751,792.9174194335938,18.711307525634766,60.307456970214844,-16.183679407627178,-9.143451150488099,10,15,-255,12,11,10,8,
68,45,-225,-145,753,799.1614379882812,19.567115783691406,57.196842193603516,-16.352443791872414,-10.453657846221368,-63,9,-364,10,12,11,11,
69,45,-257,-114,720,772.9456787109375,21.3278865814209,66.0755386352539,-19.420237288151288,-8.481364676509187,-216,-34,474,12,20,18,15,
70,45,-210,-117,738,776.1655883789062,18.04018783569336,60.872440338134766,-15.697642049910051,-8.669872893041314,35,-189,1276,10,12,11,13,
71,44,-223,-95,754,792.0037841796875,17.819177627563477,66.92222595214844,-16.3535898186045,-6.889154691271553,164,15,518,10,9,7,8,
72,44,-214,-130,755,795.4376220703125,18.34571075439453,58.71872329711914,-15.606810009769019,-9.406161156387483,173,-327,228,9,7,9,12,
73,44,-212,-118,720,759.7815551757812,18.620805740356445,60.896018981933594,-16.202175711694707,-8.934648025838564,98,-61,-588,10,8,10,8,
74,44,-228,-76,739,777.0977783203125,18.013126373291016,71.56185150146484,-17.06158086764765,-5.612486456687046,131,-226,-1108,8,9,9,7,
75,44,-206,-149,750,791.9197998046875,18.723739624023438,54.1180305480957,-15.077618477175905,-10.844861031460692,22,-67,-897,12,14,13,11,
76,47,-222,-100,724,763.8455200195312,18.585819244384766,65.74742889404297,-16.895957016796668,-7.52255776353803,65,-360,497,9,9,9,10,
77,47,-222,-90,729,767.3493041992188,18.188413619995117,67.92879486083984,-16.81650805049843,-6.735545741991329,0,-303,469,7,9,7,8,
78,47,-241,-72,720,762.669677734375,19.254302978515625,73.36306762695312,-18.42090754895548,-5.41708784649655,-143,-164,732,10,6,8,11,
79,47,-214,-105,720,758.4332275390625,18.316129684448242,63.86149978637695,-16.38919991085983,-7.957776546278477,-21,-23,692,10,9,8,10,
80,47,-219,-131,715,759.1752319335938,19.63987159729004,59.10968017578125,-16.766436616509647,-9.936445469449573,42,-239,86,7,15,11,8,
81,51,-193,-100,741,772.2240600585938,16.34659194946289,62.606292724609375,-14.473219834641078,-7.4404745288869805,118,-229,-587,10,12,7,9,
82,51,-217,-67,722,756.87646484375,17.459030151367188,72.83846282958984,-16.66077027972438,-5.0785678585805645,-95,-192,-443,7,8,9,9,
83,51,-209,-103,781,815.0159301757812,16.609691619873047,63.761436462402344,-14.858732999016816,-7.260334421250082,26,-16,-46,7,8,7,6,
84,51,-239,-160,798,848.2481689453125,19.81793975830078,56.19578170776367,-16.36510537288836,-10.872495533096345,477,-238,1481,8,9,9,8,
85,51,-258,-108,741,792.0283813476562,20.677122116088867,67.28226470947266,-19.01077071245062,-7.8371968808176575,255,-129,1347,10,8,10,6,
86,53,-207,-63,706,738.4131469726562,17.03708267211914,73.06932830810547,-16.27995268305752,-4.894316473479201,165,77,647,10,9,7,7,
87,53,-204,-48,741,770.0655517578125,15.789867401123047,76.75643920898438,-15.361753724100689,-3.573697492514999,-261,-187,-472,8,8,6,6,
88,53,-200,-99,761,793.0460205078125,16.341476440429688,63.66115188598633,-14.607271641138473,-7.171234573114668,-127,-41,-911,4,10,6,6,
89,53,-222,-153,782,827.1741333007812,19.020971298217773,55.4221305847168,-15.568106829440637,-10.659214586946156,-128,82,-17,5,9,7,7,
90,53,-219,-114,729,769.6739501953125,18.70789909362793,62.49739074707031,-16.531119038458918,-8.517684388109139,-236,26,1080,9,17,11,6,
91,56,-234,-87,720,762.0531616210938,19.121171951293945,69.60186767578125,-17.88245434000146,-6.555481199200044,-28,-43,210,8,12,6,6,
92,56,-204,-115,699,737.1851806640625,18.519960403442383,60.58541488647461,-16.065035781098512,-8.974727603703732,-13,-50,81,6,8,6,6,
93,56,-208,-147,724,767.4953002929688,19.379688262939453,54.74627685546875,-15.724462268264782,-11.042210677709447,-198,-248,124,10,10,7,6,
94,56,-183,-84,693,721.6605834960938,16.199562072753906,65.3407211303711,-14.689567193017051,-6.684278203312173,-51,-236,-119,8,12,9,8,
95,56,-216,-82,762,796.2562255859375,16.865333557128906,69.20848846435547,-15.73982106097899,-5.910909009952407,-122,-123,192,8,14,8,9,
96,58,-239,-108,753,797.366943359375,19.201074600219727,65.67922973632812,-17.441779741377786,-7.784399128788967,-61,-140,-221,8,12,8,7,
97,58,-196,-126,741,776.7708740234375,17.45354652404785,57.26115798950195,-14.615234626334274,-9.335195533862237,-143,-267,-316,7,8,5,7,
98,58,-229,-88,686,728.5471801757812,19.67591667175293,68.97598266601562,-18.320020289300174,-6.9376016932197295,22,-300,408,6,10,9,8,
99,58,-253,-63,714,760.1144409179688,20.0582275390625,76.01399230957031,-19.441522762674172,-4.754257173338836,-39,-92,1099,8,11,10,11,
100,64,-218,-109,773,810.5146484375,17.49822998046875,63.431514739990234,-15.602682237748498,-7.72869383431236,-214,-61,48,9,8,9,7,
101,64,-222,-134,783,824.820556640625,18.321250915527344,58.88109588623047,-15.613659927817663,-9.349687546718222,-201,91,-111,10,9,7,6,
102,64,-252,-101,717,766.67724609375,20.736751556396484,68.1561050415039,-19.189350831992694,-7.569996509719889,-272,-169,328,9,5,11,10,
103,64,-219,-84,687,725.93798828125,18.848939895629883,69.01182556152344,-17.558454662874276,-6.644714513336567,94,-301,-517,11,10,11,8,
104,64,-220,-60,733,767.651611328125,17.278688430786133,74.74177551269531,-16.653814588177077,-4.482836482978215,-160,-134,219,7,7,8,8,
105,65,-228,-126,771,813.8187866210938,18.666582107543945,61.0700569152832,-16.269793235596126,-8.906683174531889,30,-30,816,10,12,10,8,
106,65,-197,-156,801,839.4915161132812,17.41534423828125,51.62127685546875,-13.571927343895974,-10.709338958522933,29,197,-249,7,11,10,9,
107,65,-249,-79,723,768.7463989257812,19.86354637145996,72.39420318603516,-18.89918516626756,-5.898397227655296,39,34,55,11,12,10,11,
108,65,-255,-81,693,742.85595703125,21.108699798583984,72.3745346069336,-20.07621184530814,-6.259899947472956,215,-177,651,5,8,8,10,
109,65,-232,-122,696,743.7230834960938,20.634937286376953,62.25835418701172,-18.17642826807191,-9.441444748270653,285,-268,840,7,7,11,12,
110,67,-212,-130,716,757.957763671875,19.151287078857422,58.4794807434082,-16.242238254106006,-9.875829412978572,31,-318,-107,6,8,8,9,
111,67,-243,-111,755,800.8713989257812,19.48390007019043,65.44617462158203,-17.66310249363812,-7.96678631500737,-281,219,46,7,8,9,7,
112,67,-265,-72,714,764.9869384765625,21.03489112854004,74.79667663574219,-20.267961313296663,-5.400629726159531,35,502,723,9,10,10,10,
113,67,-207,-79,708,741.8584594726562,17.374927520751953,69.10774993896484,-16.20225861823245,-6.112979074766369,162,-349,-817,8,8,8,10,
114,67,-204,-92,704,738.71240234375,17.63214683532715,65.7221908569336,-16.030927382665947,-7.154251441462847,-88,-350,-114,8,8,7,7,
115,69,-210,-56,729,760.708251953125,16.598852157592773,75.06548309326172,-16.025106060591746,-4.221682707015121,-143,-43,395,7,9,9,9,
116,69,-205,-117,769,804.4097290039062,17.061277389526367,60.28169250488281,-14.76441593570664,-8.36323819725893,-156,-74,326,8,6,6,7,
117,69,-224,-141,765,809.4949340820312,19.083045959472656,57.80745315551758,-16.06428855925882,-10.031099237824622,-322,-47,907,9,15,10,10,
118,69,-213,-98,746,781.9776000976562,17.445472717285156,65.28974914550781,-15.806315770163685,-7.199425143050848,-119,146,77,10,12,8,7,
119,69,-243,-59,732,773.533447265625,18.858680725097656,76.34970092773438,-18.309075966591408,-4.374390399193228,-5,143,-20,7,8,7,7,
120,76,-234,-57,726,764.9058837890625,18.350566864013672,76.30689239501953,-17.8135214120381,-4.273584117400656,-22,-304,-398,10,8,9,9,
121,76,-227,-168,770,820.1542358398438,20.138988494873047,53.49156188964844,-16.06795186777711,-11.820104603896587,-216,-119,26,10,6,8,8,
122,76,-236,-111,768,811.073974609375,18.75457191467285,64.80718231201172,-16.91617064616502,-7.865932815241964,-211,-70,198,9,6,8,10,
123,76,-225,-102,765,803.8992309570312,17.89463233947754,65.6102523803711,-16.253390205179482,-7.289427183312828,-142,2,301,13,10,9,10,
124,76,-250,-80,710,756.9676513671875,20.287372589111328,72.25215148925781,-19.28486744237716,-6.066624290758768,-48,9,524,7,10,7,9,
125,76,-210,-165,744,790.4815063476562,19.744117736816406,51.8389892578125,-15.406225287497977,-12.048144664251728,-78,-139,30,7,6,6,7,
126,76,-180,-156,689,729.010986328125,19.068613052368164,49.08175277709961,-14.294728859760358,-12.35619443111449,168,-321,-531,10,7,9,7,
127,76,-231,-77,696,737.3641967773438,19.28028678894043,71.56185150146484,-18.256890333118573,-5.994097252126711,-191,-140,105,8,7,9,7,
128,76,-229,-72,721,759.911865234375,18.412717819213867,72.54313659667969,-17.538750210859448,-5.436806254310668,35,-85,641,7,9,7,7,
129,76,-247,-120,719,769.65576171875,20.901268005371094,64.084716796875,-18.71873450131127,-8.969800856024385,-15,-12,-32,8,8,10,11,
130,80,-213,-95,720,756.83154296875,17.94624900817871,65.95932006835938,-16.34595638676542,-7.210977140498639,104,-204,-418,7,9,10,9,
131,80,-225,-141,765,809.772216796875,19.13966941833496,57.922393798828125,-16.13228113393567,-10.027628830394809,-233,-124,1847,8,6,7,11,
132,80,-249,-74,685,732.5994873046875,20.765520095825195,73.44550323486328,-19.86990317360038,-5.797343659584493,-29,-447,-234,14,12,11,9,
133,80,-230,-73,734,772.6480712890625,18.19646644592285,72.3878402709961,-17.31816646876713,-5.421407241042161,-124,-195,-797,9,9,9,9,
134,80,-218,-104,775,811.7666015625,17.30803871154785,64.4924545288086,-15.578007596919269,-7.360716149396754,-95,95,1156,6,9,11,10,
135,80,-251,-172,780,837.2484741210938,21.308713912963867,55.57508850097656,-17.445082387000483,-11.854954968722947,-491,138,-1446,13,11,11,11,
136,80,-188,-88,732,760.8626708984375,15.829791069030762,64.91300964355469,-14.305258965910529,-6.6415899568812335,-144,-172,-773,10,9,11,11,
137,80,-215,-55,756,787.8997192382812,16.357404708862305,75.64759063720703,-15.835558460238392,-4.0028351585310435,-221,-10,1546,11,7,7,11,
138,80,-211,-174,738,787.0457153320312,20.331804275512695,50.48566818237305,-15.550710819806584,-12.77246907871249,35,27,1664,8,12,11,12,
139,80,-216,-229,809,868.0886840820312,21.259897232055664,43.32262420654297,-14.407844621370982,-15.295537600660221,-136,20,-459,7,10,9,8,
140,83,-237,-74,717,758.7713623046875,19.09794807434082,72.65657806396484,-18.20073163342,-5.59672902796125,-164,-160,121,10,10,10,9,
141,83,-237,-75,727,768.3248291015625,18.875059127807617,72.43655395507812,-17.966645912062187,-5.601846123398575,-35,-68,222,5,9,6,5,
142,83,-213,-151,717,763.0589599609375,20.00691032409668,54.66270065307617,-16.208861853429838,-11.413465689349321,-31,-313,-1386,12,8,7,9,
143,83,-191,-109,717,749.9673461914062,17.04933738708496,60.283905029296875,-14.754491735227269,-8.356948858097919,-29,-499,-762,9,7,7,10,
144,89,-211,-162,742,788.2442626953125,19.721359252929688,52.48017120361328,-15.52646948721271,-11.859944118634957,-217,108,1481,10,8,9,10,
145,89,-227,-40,765,798.9705810546875,16.765588760375977,80.00347137451172,-16.505990414253375,-2.8696796718748985,-290,-350,-168,10,9,11,9,
146,89,-223,-90,696,736.3728637695312,19.058570861816406,68.018310546875,-17.628002304149955,-7.0202822989359825,-391,240,1189,8,7,9,8,
147,89,-234,-109,689,735.7703247070312,20.536968231201172,65.01993560791016,-18.544072295111064,-8.51938692847913,66,106,257,9,7,8,8,
148,89,-201,-92,729,761.7781982421875,16.8666934967041,65.40250396728516,-15.299007159106482,-6.936547238384815,-18,-278,-1429,11,8,11,11,
149,91,-222,-52,732,766.68896484375,17.299009323120117,76.8139877319336,-16.831423436046407,-3.889020946279352,-79,-77,-330,6,7,8,9,
150,91,-233,-142,746,794.3355712890625,20.08869743347168,58.63652420043945,-17.05723875709509,-10.297876916591928,-72,-158,204,7,7,8,9,
151,91,-216,-129,763,803.4089965820312,18.247156143188477,59.14984130859375,-15.596105309770387,-9.239738308529606,-158,190,870,12,9,13,14,
152,91,-213,-132,750,790.7546997070312,18.47307014465332,58.20915985107422,-15.626360725709857,-9.609320325820534,16,-221,830,9,6,8,7,
153,91,-216,-67,718,752.7742309570312,17.48102378845215,72.76371765136719,-16.67476485668957,-5.106317026498713,-118,-231,1072,6,8,8,10,
154,93,-227,-100,706,748.30810546875,19.356643676757812,66.2217788696289,-17.658982956700147,-7.67968423183925,59,-109,-541,9,6,11,9,
155,93,-195,-108,846,874.874267578125,14.758997917175293,61.016780853271484,-12.878784652675016,-7.091040911698621,-353,-103,-545,8,9,11,8,
156,93,-230,-141,760,806.4620361328125,19.541412353515625,58.48631286621094,-16.57058377141382,-10.069215857785876,-499,196,-209,11,6,12,5,
157,93,-242,-140,783,831.416259765625,19.64755630493164,59.94654083251953,-16.92200235820237,-9.694070727316163,-98,77,-326,7,8,7,9,
158,93,-249,-87,720,766.7919921875,20.117494583129883,70.73748779296875,-18.949188519458264,-6.5147914436923795,34,-322,-1145,8,8,9,7,
159,99,-244,-152,692,749.335693359375,22.557064056396484,58.075531005859375,-19.003247459203305,-11.703454393147664,100,36,1253,12,13,10,10,
160,99,-232,-173,766,818.8461303710938,20.694934844970703,53.284751892089844,-16.458782227569333,-12.196957971006107,-270,-297,605,8,10,10,10,
161,99,-218,-109,714,754.4541015625,18.84577751159668,63.431514739990234,-16.79514302744933,-8.306897429169965,-49,-106,421,6,6,8,5,
162,99,-228,-78,707,746.9384155273438,18.819002151489258,71.11070251464844,-17.77296734035148,-5.994113084803828,-12,-134,-831,8,8,10,9,
163,99,-246,-140,735,787.6173095703125,21.05961036682129,60.352020263671875,-18.199970672521943,-10.238806872500303,-63,-323,-645,9,9,8,6,
164,101,-222,-139,754,798.1986083984375,19.154184341430664,57.94463348388672,-16.148406543696808,-10.028738972311228,161,-309,-514,8,8,8,7,
165,101,-192,-77,708,737.6021728515625,16.285221099853516,68.14385986328125,-15.088036657048818,-5.99215630254104,54,-202,19,13,10,17,13,
166,101,-267,-107,799,849.1990356445312,19.79694366455078,68.1583023071289,-18.325436508002177,-7.238570860757443,234,-117,1420,9,5,7,10,
167,101,-231,-142,748,795.6312255859375,19.923845291137695,58.41659927368164,-16.878044404572154,-10.280925133418993,57,38,1030,8,5,7,9,
168,101,-246,-128,693,746.4241333007812,21.807126998901367,62.507442474365234,-19.242759262189693,-9.874128935021767,20,58,49,10,7,11,15,
169,105,-241,-116,721,769.0110473632812,20.350915908813477,64.29378509521484,-18.263617552297383,-8.675787742155645,139,-75,-955,12,10,12,10,
170,105,-210,-81,746,779.2156372070312,16.787227630615234,68.90438842773438,-15.634622046302136,-5.966714511723831,113,-381,-611,9,6,8,8,
171,105,-240,-126,728,776.826904296875,20.420333862304688,62.297054290771484,-17.995912498847535,-9.334516570483776,32,-273,113,8,8,11,11,
172,105,-215,-122,775,813.4703369140625,17.689029693603516,60.42409133911133,-15.325347371841035,-8.625462473932524,148,46,681,11,10,8,11,
173,105,-233,-121,768,811.6365966796875,18.871192932128906,62.55308532714844,-16.682878409547502,-8.573701580928173,-64,56,1516,9,7,9,10,
174,107,-203,-96,752,784.8114624023438,16.624008178710938,64.68682861328125,-14.990616949910669,-7.02615249610779,-8,-25,-528,7,9,7,8,
175,107,-240,-119,719,767.2822265625,20.43215560913086,63.62281799316406,-18.227590703735054,-8.922182364536171,209,-75,-211,8,9,7,6,
176,107,-225,-132,753,796.9052734375,19.105545043945312,59.59772491455078,-16.4000454749008,-9.534459999597232,138,258,517,5,7,8,9,
177,107,-195,-138,771,807.1616821289062,17.213232040405273,54.709556579589844,-13.980241997452403,-9.84419035957985,-302,-166,-851,8,10,12,9,
178,107,-245,-75,710,754.81787109375,19.841272354125977,72.97632598876953,-18.940229222159328,-5.702416616274585,-264,-157,-266,9,6,8,8,
179,110,-226,-148,775,820.7344360351562,19.215349197387695,56.77688217163086,-15.98365544609313,-10.38876624840202,52,-148,244,7,9,10,13,
180,110,-222,-155,753,800.19873046875,19.775005340576172,55.073631286621094,-16.106943447899873,-11.168901193579854,49,-453,-493,8,7,6,6,
181,110,-242,-108,702,750.3545532226562,20.67952537536621,65.94634246826172,-18.815040734019636,-8.275435806793467,84,-124,695,14,9,7,10,
182,110,-232,-84,702,744.0994262695312,19.363452911376953,70.09300994873047,-18.16691293691166,-6.481830862953965,112,-246,33,9,11,11,12,
183,112,-237,-99,729,772.9236450195312,19.406648635864258,67.32533264160156,-17.856132077258962,-7.358951131126268,-32,-272,115,4,5,7,7,
184,112,-230,-97,730,771.4978637695312,18.875619888305664,67.1296157836914,-17.344802435223986,-7.2228821003775705,6,129,792,5,5,8,6,
185,112,-223,-99,699,740.3587036132812,19.23958396911621,66.05799865722656,-17.53001358893436,-7.684550474263509,-15,-136,18,6,6,6,7,
186,112,-231,-114,700,745.8934326171875,20.201454162597656,63.72993469238281,-18.04089404743162,-8.791362026651262,-36,-370,-1112,9,8,7,7,
187,112,-213,-56,707,740.50927734375,17.30025863647461,75.26659393310547,-16.716711583466992,-4.337055427812153,-4,-444,507,12,6,7,9,
188,119,-220,-96,748,785.5698852539062,17.78931427001953,66.42195129394531,-16.26327713830491,-7.0193350632787554,-109,-66,1028,7,11,9,7,
189,119,-192,-107,754,785.3846435546875,16.250011444091797,60.86592483520508,-14.150290509766103,-7.830270238392647,-119,366,194,6,5,6,4,
190,119,-226,-135,777,820.384033203125,18.71449089050293,59.1446533203125,-15.990664664362091,-9.471504979453814,-360,101,-20,6,6,8,8,
191,119,-240,-91,720,764.3827514648438,19.618574142456055,69.23167419433594,-18.299177397922996,-6.837296132438073,-132,171,-873,8,10,8,6,
192,119,-235,-89,740,781.5023803710938,18.75432586669922,69.2538833618164,-17.499822902440442,-6.539214376632789,146,-475,-377,8,7,10,8,
193,120,-223,-155,761,808.0068359375,19.637802124023438,55.194419860839844,-16.02088768538949,-11.059604123151823,34,-147,774,8,8,7,8,
194,120,-186,-126,780,811.7092895507812,16.065555572509766,55.88185501098633,-13.246802700770514,-8.930018854490541,-15,-125,380,7,5,9,11,
195,120,-243,-99,741,786.0858764648438,19.497295379638672,67.8303451538086,-18.006599159474856,-7.235068182073466,-124,100,806,7,6,8,10,
196,120,-213,-91,684,722.1537475585938,18.705673217773438,66.863037109375,-17.15460222815589,-7.2391984522988,-49,-315,-657,9,9,11,7,
197,120,-223,-102,739,778.6231689453125,18.35513687133789,65.41730499267578,-16.642730575750015,-7.527409628023353,123,129,-232,7,11,7,7,
198,128,-217,-102,727,765.520751953125,18.25132179260254,64.8209228515625,-16.467245955637072,-7.657012224890973,16,-381,126,7,6,6,7,
199,128,-204,-94,693,728.4922485351562,17.9564266204834,65.25711059570312,-16.262020379371396,-7.413752821535282,-23,-527,-235,8,7,9,9,
200,128,-244,-94,709,755.6804809570312,20.24199867248535,68.92774200439453,-18.837656172937123,-7.1455995107170684,77,-40,551,6,5,6,8,
201,128,-221,-136,741,785.1229248046875,19.297861099243164,58.38890838623047,-16.34882942127541,-9.97516439398653,117,-72,-516,9,5,7,6,
202,128,-217,-109,727,766.48486328125,18.468582153320312,63.32599639892578,-16.445944577116375,-8.175613117011409,171,-177,-278,6,9,7,5,
203,126,-241,-97,704,750.4038696289062,20.252885818481445,68.07243347167969,-18.733114357233376,-7.427047711310464,216,-69,865,9,11,9,7,
204,126,-213,-79,734,768.352783203125,17.195528030395508,69.64732360839844,-16.094141355235163,-5.901429484897095,-54,-4,108,6,12,9,8,
205,126,-218,-123,738,779.2926025390625,18.733179092407227,60.56391143798828,-16.24473980795104,-9.081280071247155,-116,-313,509,6,5,6,9,
206,126,-227,-132,742,787.093994140625,19.486461639404297,59.81855010986328,-16.762349011204787,-9.654438941810346,-81,-58,9,6,7,8,9,
207,126,-208,-107,724,760.8475341796875,17.90235137939453,62.77421188354492,-15.86545650376107,-8.08445603170414,-84,-813,170,5,7,6,5,
208,130,-211,-85,697,733.181396484375,18.072830200195312,68.05496978759766,-16.725506508816192,-6.657448111989975,-107,-596,-180,5,7,7,5,
209,130,-226,-70,735,772.1405029296875,17.840951919555664,72.78728485107422,-17.01924101286149,-5.201409097365088,-11,-147,-183,5,6,7,6,
210,130,-244,-121,750,797.92041015625,19.955886840820312,63.61967849731445,-17.805993703310403,-8.722222091641973,-215,-96,311,5,6,8,10,
211,130,-241,-135,752,801.1304321289062,20.167957305908203,60.740421295166016,-17.507156164698106,-9.701307991369276,-19,75,-323,4,7,7,8,
212,130,-239,-101,735,779.4530029296875,19.441633224487305,67.0880355834961,-17.85597151399619,-7.445210014773868,-91,-20,275,5,6,10,11,
213,134,-227,-103,732,773.280029296875,18.803640365600586,65.59071350097656,-17.070892140105858,-7.654480214681446,77,-248,689,6,6,9,16,
214,134,-231,-129,724,770.8294067382812,20.072290420532227,60.815677642822266,-17.438215789401728,-9.633905915322936,74,-416,563,7,6,10,11,
215,134,-226,-140,740,786.3052978515625,19.759061813354492,58.21947479248047,-16.70356834982185,-10.256075759852624,37,-161,-419,5,6,8,9,
216,134,-251,-129,742,793.8551635742188,20.821557998657227,62.79590606689453,-18.43197869647357,-9.351928120676712,-18,-754,-419,6,7,7,7,
217,134,-226,-116,700,744.6690673828125,19.943880081176758,62.82628631591797,-17.667373130607135,-8.96168244821537,-35,-892,295,9,8,7,12,
218,138,-214,-102,720,758.0237426757812,18.222402572631836,64.51246643066406,-16.398303717437127,-7.733202365898821,4,631,-1,5,6,6,7,
219,138,-216,-102,729,767.13818359375,18.140361785888672,64.71887969970703,-16.35368831131332,-7.640771524397807,20,-184,-335,5,6,6,4,
220,138,-213,-99,731,767.8092041015625,17.81097984313965,65.06813049316406,-16.105844810884246,-7.4082438710974285,-16,-218,391,6,6,6,6,
221,138,-222,-99,765,802.689208984375,17.625200271606445,65.96234893798828,-16.055615583634502,-7.084637575607675,-20,-388,858,9,6,8,7,
222,143,-221,-130,748,790.724365234375,18.918638229370117,59.5308952331543,-16.229802718285402,-9.462742203454145,-60,-38,349,8,8,8,7,
223,143,-214,-141,726,769.904541015625,19.440752029418945,56.616329193115234,-16.138282266560164,-10.552685600324041,49,-384,-111,6,7,6,5,
224,143,-210,-123,733,772.3457641601562,18.365047454833984,59.63833999633789,-15.777296280665462,-9.163661915275878,49,-193,-683,7,4,6,5,
225,143,-222,-60,705,741.5584716796875,18.063779830932617,74.87288665771484,-17.41973813682541,-4.64091340287451,-67,-250,-297,9,7,6,7,
226,143,-222,-99,768,805.5488891601562,17.560577392578125,65.96234893798828,-15.997087401074763,-7.059359255899216,-18,78,740,9,6,6,7,
227,144,-225,-132,738,782.7470703125,19.46497344970703,59.59772491455078,-16.705303012499094,-9.708571880356835,-78,-115,505,9,6,7,7,
228,144,-230,-125,727,772.6926879882812,19.80048942565918,61.4733772277832,-17.317134102268202,-9.309761223785463,39,-76,490,7,7,5,6,
229,144,-225,-114,728,770.4576416015625,19.107709884643555,63.12674331665039,-16.97978107138247,-8.508956017149215,27,-107,326,8,6,6,7,
230,144,-218,-97,716,754.711181640625,18.428495407104492,66.009765625,-16.78925207308758,-7.384422869813074,-45,-53,-464,6,7,6,6,
231,144,-212,-114,732,770.5608520507812,18.200557708740234,61.72800064086914,-15.969420972374499,-8.507808214311202,-20,-297,-914,9,11,8,7,
232,143,-221,-115,754,794.0919189453125,18.282045364379883,62.50577926635742,-16.159086177653915,-8.326827204658457,47,-33,185,5,8,8,9,
233,143,-237,-111,703,750.1326293945312,20.416748046875,64.90034484863281,-18.41781873506435,-8.509525099798221,118,-416,679,6,6,7,8,
234,143,-206,-84,722,755.4971923828125,17.12335205078125,67.81267547607422,-15.823097598085424,-6.383633576656921,-5,-97,1020,4,7,5,8,
235,143,-229,-101,687,731.1709594726562,20.015331268310547,66.19686126708984,-18.251956632017322,-7.9399170929154,-49,-92,967,6,8,6,6,
236,143,-230,-87,706,747.5994873046875,19.20146942138672,69.27706146240234,-17.91774737390496,-6.682793389652414,39,-300,180,9,8,8,10,
237,150,-239,-58,726,766.5252685546875,18.712024688720703,76.3562240600586,-18.167537309386727,-4.339497411509902,21,-34,311,7,11,8,12,
238,150,-219,-60,735,769.2763061523438,17.165828704833984,74.67538452148438,-16.53991022150608,-4.473349672216265,-42,-712,-746,5,15,9,8,
239,150,-220,-114,727,768.0657348632812,18.818462371826172,62.604164123535156,-16.644573392134248,-8.535652009219547,-150,-186,-51,8,9,9,8,
240,150,-213,-126,723,764.1819458007812,18.893577575683594,59.3900260925293,-16.184388557883736,-9.490391645013515,-21,-194,120,9,8,9,8,
241,150,-230,-90,687,730.0472412109375,19.771827697753906,68.62609100341797,-18.363717423519304,-7.081420904350336,-27,-653,1100,8,7,9,12,
242,157,-228,-39,736,771.4927368164062,17.444843292236328,80.2904052734375,-17.189380264162917,-2.897614163206409,19,-113,295,6,10,8,5,
243,157,-236,-78,747,787.2667846679688,18.402172088623047,71.70764923095703,-17.443868206942362,-5.686020194137645,-52,-229,679,8,11,10,9,
244,157,-242,-118,772,817.6013793945312,19.22419548034668,64.0025634765625,-17.216777375755804,-8.298170896002604,35,235,374,10,14,9,7,
245,157,-177,-189,786,827.55419921875,18.231855392456055,43.11808395385742,-12.350019154979421,-13.201939429095118,-63,160,-1572,9,8,10,7,
246,157,-241,-66,713,755.5170288085938,19.311153411865234,74.68144989013672,-18.601664840729168,-5.011598012011689,17,-231,-364,8,7,11,11,
247,160,-249,-30,723,765.2646484375,19.12900733947754,83.12715148925781,-18.98845503857063,-2.2466919517091513,100,-599,698,13,8,8,6,
248,160,-238,-122,764,809.4591064453125,19.291112899780273,62.85663986206055,-17.098992036829912,-8.668534165843852,-180,-6,1473,13,11,10,9,
249,160,-215,-157,784,827.9674072265625,18.753765106201172,53.85814666748047,-15.050604388590676,-10.930666701409283,-76,106,674,12,6,11,5,
250,160,-192,-165,819,857.2339477539062,17.174558639526367,49.321197509765625,-12.942682575806648,-11.097523399475408,-145,79,-964,21,12,13,12,
251,160,-224,-90,753,790.7496337890625,17.773195266723633,68.10713958740234,-16.455794398597604,-6.535341267989361,-170,-228,56,10,9,8,8,
252,165,-225,-137,684,732.973388671875,21.061044692993164,58.65965270996094,-17.876653872082738,-10.77250539542384,-48,98,-1236,12,10,10,7,
253,165,-224,-83,720,758.5941162109375,18.352787017822266,69.66527557373047,-17.174512807250974,-6.281474479547192,112,-296,71,12,14,9,6,
254,165,-234,-81,740,780.3313598632812,18.49942970275879,70.90328979492188,-17.449952290491733,-5.958152465819515,-81,-519,575,9,9,10,6,
255,165,-221,-96,735,773.4869384765625,18.148237228393555,66.51704406738281,-16.601838688387186,-7.129551905329958,-23,-11,754,6,6,8,9,
256,165,-216,-134,727,770.156494140625,19.269624710083008,58.182167053222656,-16.2878092240853,-10.019923560122708,78,-5,639,6,6,8,6,
257,165,-225,-103,708,749.9986572265625,19.26308822631836,65.39937591552734,-17.457635157035327,-7.893581100745616,41,-423,82,6,5,7,5,
258,165,-213,-123,747,786.4521484375,18.22295570373535,59.991539001464844,-15.714053279979536,-8.997918237013513,-29,-158,-424,7,5,7,6,
259,165,-229,-57,747,783.389404296875,17.529882431030273,76.01957702636719,-16.99687173717016,-4.172570929209829,75,-124,-245,5,8,6,6,
260,165,-207,-132,765,803.4288940429688,17.790462493896484,57.47150802612305,-14.930411916259304,-9.456328935496533,-131,-113,-162,7,8,6,6,
261,172,-249,-125,723,774.8258056640625,21.072574615478516,63.33955001831055,-18.74534688801232,-9.283904478016638,-123,-38,257,11,8,9,8,
262,172,-242,-143,751,801.8815307617188,20.518369674682617,59.41720962524414,-17.56515924205144,-10.272535916365777,-121,0,882,9,6,7,8,
263,172,-212,-89,734,769.1690063476562,17.390911102294922,67.22345733642578,-15.999091930828138,-6.64453729447615,-11,-194,802,6,9,8,8,
264,172,-228,-78,730,768.7444458007812,18.265939712524414,71.11070251464844,-17.25275612844936,-5.823488960800422,-26,-101,398,9,6,8,7,
265,172,-236,-148,741,791.6318359375,20.600948333740234,57.90381622314453,-17.344623106447305,-10.775168868093312,-32,-78,-218,6,9,6,5,
266,170,-216,-126,742,783.0044555664062,18.622404098510742,59.74001693725586,-16.01330055049201,-9.260220312216696,-109,-253,-589,8,8,7,6,
267,170,-219,-63,710,745.6741943359375,17.792415618896484,73.94786071777344,-17.07923751676511,-4.8465433388606645,43,-150,-608,9,7,7,8,
268,170,-224,-111,722,764.0556030273438,19.096426010131836,63.63650894165039,-17.047977082846298,-8.353342009684203,38,-174,406,7,6,7,9,
269,170,-221,-105,735,774.6553955078125,18.410053253173828,64.58358001708984,-16.57607284257233,-7.790085963135396,-115,-88,1074,11,8,10,13,
270,170,-225,-120,762,803.5353393554688,18.50048828125,61.924034118652344,-16.260955801948004,-8.588683157247667,-23,-423,531,8,6,5,6,
271,175,-216,-117,736,775.9130249023438,18.455175399780273,61.55358123779297,-16.163644539998515,-8.67271673996996,15,-164,366,9,6,9,6,
272,175,-216,-105,744,781.8037109375,17.888334274291992,64.07168579101562,-16.03855831335432,-7.718422705853071,-73,-216,-329,10,9,7,6,
273,175,-220,-121,721,763.4671020507812,19.197973251342773,61.185707092285156,-16.747776860653595,-9.119116919036703,21,-42,-600,7,6,6,5,
274,175,-227,-107,731,772.8770751953125,18.945384979248047,64.75901794433594,-17.080065209833165,-7.957802544493273,-102,-560,-341,7,6,8,7,
275,175,-231,-97,741,782.2090454101562,18.678794860839844,67.2184829711914,-17.17657538261242,-7.123459361550902,-95,-219,277,8,5,6,5,
276,177,-229,-62,729,766.6328735351562,18.024757385253906,74.84768676757812,-17.380067713742786,-4.63875487778822,-153,-224,964,16,9,9,8,
277,177,-210,-141,747,788.6634521484375,18.704715728759766,56.11780548095703,-15.442625234639129,-10.298909574726949,112,-16,569,6,6,10,13,
278,177,-210,-126,741,780.4210205078125,18.28656768798828,59.03267288208008,-15.609857109591408,-9.291145534261384,219,-215,374,8,6,10,9,
279,177,-224,-113,701,744.5441284179688,19.69025230407715,63.22724533081055,-17.508977189765353,-8.72955613403874,113,-30,180,6,9,10,10,
280,177,-240,-73,744,785.15283203125,18.630599975585938,73.0788345336914,-17.798655660979495,-5.334810277077355,39,-48,-433,6,7,6,7,
281,181,-216,-93,753,788.8688354492188,17.342012405395508,66.70209503173828,-15.891097726325247,-6.7703627981111705,84,-204,-599,7,6,8,5,
282,181,-220,-144,753,797.5869750976562,19.246414184570312,56.789791107177734,-16.011601050562316,-10.401481109984408,118,75,-163,7,5,7,9,
283,181,-228,-156,726,776.7857055664062,20.831003189086914,55.615989685058594,-17.068646625586506,-11.585358632071753,22,51,1501,9,6,9,10,
284,181,-220,-58,717,752.2319946289062,17.603036880493164,75.22771453857422,-17.005467454784373,-4.422115378256761,60,-71,715,7,8,5,5,
285,181,-249,-69,685,732.111328125,20.664533615112305,74.50838470458984,-19.88371044459518,-5.4080369355335645,86,-36,-383,11,7,7,6,
286,186,-193,-123,757,790.8394165039062,16.819385528564453,57.486793518066406,-14.125372744560378,-8.947590354706417,-155,-198,771,8,12,9,8,
287,186,-236,-135,731,779.9243774414062,20.39984893798828,60.2254524230957,-17.61343841780346,-9.967742846081387,-34,-33,-87,5,9,8,6,
288,186,-186,-96,726,755.5712890625,16.080623626708984,62.69697570800781,-14.25106675620816,-7.299512825726397,-76,-21,-474,7,5,8,8,
289,186,-224,-87,727,765.685302734375,18.28862190246582,68.77090454101562,-17.010585714819605,-6.5242486611501525,-122,-102,-205,10,7,7,8,
290,186,-221,-180,691,747.4771118164062,22.413488388061523,50.834075927734375,-17.19719218018654,-13.934355451799247,-164,49,417,12,9,12,10,
291,187,-214,-93,720,756.865234375,17.954124450683594,66.50787353515625,-16.424114168247215,-7.058070170270984,-255,-110,1545,8,16,10,11,
292,187,-225,-77,710,748.768310546875,18.515897750854492,71.10469818115234,-17.48724517610842,-5.902477435122662,-28,-59,328,8,7,9,9,
293,187,-217,-78,753,787.516357421875,17.024112701416016,70.22594451904297,-15.994783407385155,-5.684212400150767,-120,-44,-20,6,6,8,7,
294,187,-217,-134,761,802.5995483398438,18.525794982910156,58.30060577392578,-15.68637164535724,-9.610967788014904,-148,51,-841,6,8,7,6,
295,187,-214,-130,704,747.2027587890625,19.576868057250977,58.71872329711914,-16.642641355406777,-10.019435120639432,-13,-159,-233,6,6,8,6,
296,189,-241,-111,717,764.5200805664062,20.30549430847168,65.26673126220703,-18.374724937605983,-8.348230698506562,9,-203,775,9,13,9,9,
297,189,-224,-81,726,764.0765380859375,18.16216468811035,70.11640930175781,-17.04749556507686,-6.085378427670576,-102,-369,272,6,15,7,9,
298,189,-226,-101,739,779.357421875,18.517133712768555,65.91664123535156,-16.856907154076364,-7.446128321498607,-14,-52,190,7,5,8,8,
299,189,-243,-180,786,842.1668701171875,21.04167938232422,53.4674072265625,-16.770651806676824,-12.341286119543886,3,-218,-22,9,9,10,9,
300,193,-232,-123,730,775.7918701171875,19.782142639160156,62.065216064453125,-17.40051000261802,-9.122608535262149,53,-199,-243,5,10,9,10,
301,193,-203,-87,746,778.0064086914062,16.489511489868164,66.7980728149414,-15.124854218042216,-6.4204873905104956,126,-167,108,6,8,8,7,
302,193,-231,-133,740,786.5430908203125,19.80722999572754,60.0649528503418,-17.07901330260305,-9.735167645196597,49,-304,-248,9,8,9,9,
303,193,-213,-124,765,803.7225952148438,17.855588912963867,59.790218353271484,-15.367951900434976,-8.87516215343501,175,-251,-286,8,10,7,10,
304,193,-238,-144,742,792.42919921875,20.548757553100586,58.82072830200195,-17.478163494752998,-10.469944082737882,154,-167,687,9,8,10,12,
305,198,-215,-66,696,731.4348754882812,17.905349731445312,72.93157958984375,-17.09415223055806,-5.17704579842413,142,-296,679,9,10,8,7,
306,198,-198,-124,719,756.0032958984375,17.99833869934082,57.93903350830078,-15.183046030910365,-9.44033495419494,107,-124,206,7,12,9,8,
307,198,-227,-118,697,742.47021484375,20.153886795043945,62.530052185058594,-17.80245947707447,-9.144733382645926,95,-395,-73,8,10,8,6,
308,198,-199,-116,732,767.3858032226562,17.465267181396484,59.7579231262207,-15.029833813456964,-8.694304207207725,-106,-344,93,5,12,8,10,
309,198,-222,-74,714,751.3694458007812,18.14407730102539,71.56185150146484,-17.185154333532452,-5.652042691336777,-81,-449,-85,11,10,8,9,
310,197,-215,-81,731,766.2551879882812,17.44570541381836,69.3531265258789,-16.295145058769158,-6.06801143973996,-9,-66,322,9,8,8,7,
311,197,-201,-144,714,755.60107421875,19.09893226623535,54.377803802490234,-15.427176801928308,-10.986444642622258,-302,-172,712,9,10,9,7,
312,197,-219,-154,711,759.7354736328125,20.6317138671875,54.88155746459961,-16.753707112635645,-11.695016886582598,-342,-58,207,10,11,13,11,
313,197,-192,-118,699,734.4310913085938,17.867515563964844,58.42221450805664,-15.15474308355176,-9.245705311605297,110,-265,277,7,13,9,6,
314,197,-222,-67,735,770.712646484375,17.508174896240234,73.20294189453125,-16.74095480574978,-4.987162035688575,-194,-222,-26,7,12,9,7,
315,201,-215,-122,749,788.739501953125,18.263002395629883,60.42409133911133,-15.818256452950076,-8.898074110823204,-211,-77,390,5,11,7,9,
316,201,-207,-135,774,812.4961547851562,17.705703735351562,56.8850212097168,-14.759982882548785,-9.564315991299747,-61,-246,669,7,7,7,7,
317,201,-235,-144,726,776.5545654296875,20.786142349243164,58.497867584228516,-17.614961486863724,-10.686465111988372,-120,17,376,7,8,8,6,
318,201,-171,-87,723,748.0233764648438,14.85958194732666,63.03084182739258,-13.214807604024587,-6.678989008733879,-202,336,601,13,12,12,8,
319,201,-222,-112,764,803.445068359375,18.02593231201172,63.225399017333984,-16.040103456647007,-8.01311072662999,-296,-133,-208,11,17,13,9,
320,203,-225,-118,751,792.8114624023438,18.68868637084961,62.32201385498047,-16.487140430180055,-8.559558544713312,-98,-33,186,6,4,5,5,
321,203,-257,-123,744,796.6893920898438,20.95248794555664,64.42085266113281,-18.81932316954579,-8.881356179489233,-165,165,-378,7,13,8,9,
322,203,-224,-83,739,776.6505126953125,17.911373138427734,69.66527557373047,-16.76326889981456,-6.13486857210858,5,212,-838,7,13,11,10,
323,203,-204,-122,717,755.3734130859375,18.339092254638672,59.11536407470703,-15.66814090840534,-9.294525168756397,-109,103,1266,8,11,13,13,
324,203,-254,-104,702,753.7479858398438,21.352394104003906,67.7301025390625,-19.693148032097007,-7.9308097657263055,80,-299,1002,7,8,7,7,
325,208,-195,-94,738,769.0936279296875,16.34556770324707,64.26013946533203,-14.687398794010464,-7.020345857141762,22,-16,204,6,7,6,6,
326,208,-222,-66,718,754.4295654296875,17.875856399536133,73.43978881835938,-17.113292220810315,-5.018840387383257,-69,-351,-706,9,10,7,6,
327,208,-206,-82,719,752.41015625,17.136226654052734,68.29126739501953,-15.88973149098917,-6.256699976445353,100,100,-608,7,8,7,6,
328,208,-241,-132,710,761.3179321289062,21.155227661132812,61.286197662353516,-18.454792668328707,-9.984603923443126,164,-129,528,7,7,7,8,
329,208,-210,-133,705,747.5386352539062,19.419912338256836,57.64894485473633,-16.315236543047376,-10.248467631546161,-88,-239,171,8,7,12,11,
330,212,-195,-81,691,722.5420532226562,16.989816665649414,67.43943786621094,-15.65715544598801,-6.436627945923871,7,-216,558,7,6,8,10,
331,212,-222,-87,772,807.9832763671875,17.16159439086914,68.59690856933594,-15.947602409507954,-6.181335241180876,-48,-118,618,9,17,7,7,
332,212,-220,-153,763,808.6890869140625,19.349620819091797,55.17945861816406,-15.786006119298634,-10.905814307625228,-133,-68,-152,8,17,6,6,
333,212,-209,-144,762,803.1569213867188,18.41964340209961,55.42967224121094,-15.083302191961069,-10.328552085579194,61,-24,-86,6,6,9,8,
334,212,-223,-100,732,771.7208251953125,18.460674285888672,65.84371185302734,-16.795978789914123,-7.445354115298292,65,102,-402,8,9,7,6,
335,215,-227,-52,723,759.5801391601562,17.851730346679688,77.09455871582031,-17.388502899225063,-3.9254747114263595,-2,-147,278,9,9,7,7,
336,215,-192,-121,766,798.9124145507812,16.501102447509766,57.776920318603516,-13.905824937716947,-8.711307927634238,-304,-166,385,10,8,11,12,
337,215,-211,-143,779,819.6407470703125,18.116195678710938,55.8698616027832,-14.917612891630053,-10.047623341293441,-59,-99,1043,14,11,12,11,
338,215,-229,-131,768,812.0504760742188,18.956422805786133,60.22464370727539,-16.37973683552573,-9.283523097407357,-47,-20,1198,9,7,8,5,
339,219,-235,-126,731,778.1143798828125,20.0384464263916,61.797630310058594,-17.57849774375994,-9.318933424736118,-21,-46,-217,10,7,8,6,
340,219,-218,-102,748,785.7684326171875,17.834381103515625,64.92218017578125,-16.107202784645466,-7.458569124602959,17,-68,-627,9,5,7,7,
341,219,-198,-130,730,767.4659423828125,17.97454833984375,56.708824157714844,-14.950941795820091,-9.752274052648193,99,-220,-386,11,9,8,10,
342,219,-213,-109,691,731.2530517578125,19.097129821777344,62.89603805541992,-16.93465377013744,-8.57241038077376,-166,-345,-554,11,5,9,8,
343,219,-256,-90,729,777.866943359375,20.41499137878418,70.62700653076172,-19.21446911091645,-6.644060438779711,-190,51,320,7,7,10,11,
344,222,-233,-85,705,747.3546752929688,19.379873275756836,69.95443725585938,-18.165708240795208,-6.530637601835969,0,-135,788,8,7,6,9,
345,222,-216,-155,692,741.3130493164062,21.014202117919922,54.333351135253906,-16.940286546308673,-12.06893913838461,96,-99,711,11,11,11,11,
346,222,-215,-103,693,732.8594970703125,18.981626510620117,64.39891815185547,-17.05990438503018,-8.079405274934809,-36,-140,475,8,11,9,8,
347,222,-216,-85,729,765.0634155273438,17.660001754760742,68.51615905761719,-16.39928851752627,-6.378839394528285,-206,-276,51,10,7,8,8,
348,222,-231,-67,725,763.8553466796875,18.35125732421875,73.82242584228516,-17.602607912001346,-5.03204788096076,19,-23,-342,9,8,5,7,
349,222,-217,-167,768,815.3538818359375,19.621000289916992,52.414886474609375,-15.434827456970009,-11.81890565063144,-181,-157,-1162,10,8,11,10,
350,222,-240,-132,754,802.20947265625,19.962465286254883,61.185707092285156,-17.407982718333393,-9.470835931779243,-160,151,1195,9,5,9,12,
351,222,-211,-91,652,691.3074340820312,19.412099838256836,66.66710662841797,-17.77132509588322,-7.564061440462269,-82,-461,553,13,11,16,11,
352,222,-219,-68,736,770.896240234375,17.30323028564453,72.74714660644531,-16.504158067518777,-5.060581592097268,26,-338,353,7,6,8,9,
353,222,-247,-57,765,805.9050903320312,18.331100463867188,77.0023422241211,-17.847690299022588,-4.0557982991972485,-86,-193,1042,7,6,9,9,
354,229,-203,-129,794,829.6300659179688,16.85057258605957,57.561737060546875,-14.163359590636835,-8.945273447757646,-492,123,-918,11,8,12,9,
355,229,-246,-96,738,783.8214111328125,19.685943603515625,68.67880249023438,-18.291222460261647,-7.035071973562016,-18,14,-1768,8,7,11,11,
356,229,-256,-111,717,769.3802490234375,21.262035369873047,66.5553970336914,-19.434883388237562,-8.295122319743554,68,-269,365,7,5,8,9,
357,229,-218,-110,709,749.8699951171875,19.00166130065918,63.22163009643555,-16.900890349215462,-8.43527699350727,-39,-11,1453,9,7,12,9,
358,229,-214,-117,711,751.6688232421875,18.93149185180664,61.329803466796875,-16.54090821972247,-8.954708239472891,18,49,-27,8,9,8,10,
359,231,-187,-142,763,798.3119506835938,17.102975845336914,52.784725189208984,-13.54707894764837,-10.246027817530852,61,104,1139,9,10,8,12,
360,231,-227,-172,741,793.8475952148438,21.022233963012695,52.84470748901367,-16.61558885529643,-12.513302319174917,-137,75,96,7,7,9,8,
361,231,-199,-45,699,728.1668701171875,16.269319534301758,77.25494384765625,-15.860075855946823,-3.5430807605074848,10,1,-971,10,8,8,7,
362,231,-258,-72,732,779.4690551757812,20.096853256225586,74.4040756225586,-19.32915115694264,-5.299998962776744,-4,-77,38,7,6,6,7,
363,231,-200,-147,741,781.466552734375,18.517112731933594,53.680381774902344,-14.828642931005644,-10.842381312745141,-31,-623,-525,13,8,9,9,
364,231,-208,-56,732,763.0360107421875,16.395471572875977,74.92841339111328,-15.818757857471141,-4.208780233597619,-199,-71,-879,9,7,10,10,
365,231,-218,-57,714,748.7115478515625,17.512847900390625,75.34394836425781,-16.927827627252555,-4.366197381869294,-121,-22,1431,14,8,9,11,
366,231,-191,-151,796,832.4049682617188,17.00556755065918,51.66716384887695,-13.26502438876615,-10.451438407230334,-278,-160,900,9,7,13,11,
367,231,-210,-73,709,743.0410766601562,17.408103942871094,70.82835388183594,-16.416776698866673,-5.638113459479868,-35,-331,327,13,7,7,9,
368,231,-195,-99,710,742.917236328125,17.11753273010254,63.079994201660156,-15.217194656331147,-7.657926717060712,-54,-359,391,7,6,9,8,
369,239,-205,-73,742,773.2515869140625,16.342897415161133,70.39607238769531,-15.37374076304254,-5.4171631091746475,-95,-186,-457,9,9,10,12,
370,239,-232,-124,738,783.4819946289062,19.616451263427734,61.8727912902832,-17.224351196226124,-9.10636979056898,5,-16,-402,8,9,9,9,
371,239,-213,-174,777,824.241455078125,19.490463256835938,50.750755310058594,-14.976296590001215,-12.187009573512537,-185,149,-30,7,8,11,12,
372,239,-219,-129,738,780.5421142578125,19.00174903869629,59.49660873413086,-16.294479215130043,-9.5129050793975,-236,129,1017,10,9,12,12,
373,239,-235,-96,767,807.9170532226562,18.310766220092773,67.77615356445312,-16.910134840383456,-6.824241538572772,-122,248,882,8,5,7,7,
374,237,-247,-129,687,741.3629150390625,22.07621192932129,62.4199333190918,-19.461304070620066,-10.02069317985535,-42,-24,233,10,8,10,9,
375,237,-167,-127,781,808.689697265625,15.03449535369873,52.744014739990234,-11.917725847520753,-9.035370722853754,-702,-531,-1009,15,9,12,14,
376,237,-190,-78,718,746.7985229492188,15.96125602722168,67.67725372314453,-14.739182515878682,-5.9952402370577795,-61,-440,-282,7,6,9,9,
377,237,-210,-103,747,782.7630615234375,17.38416290283203,63.86972427368164,-15.561967328002194,-7.56120212259141,-229,-298,-799,7,7,10,9,
378,237,-209,-117,724,762.5916137695312,18.303607940673828,60.75599670410156,-15.906327326920753,-8.825415583946853,-245,-184,346,7,6,8,9,
379,242,-217,-162,723,772.050537109375,20.531455993652344,53.25330352783203,-16.324057569879514,-12.112438586879232,-33,-203,1228,10,6,10,8,
380,242,-203,-90,701,735.329833984375,17.574539184570312,66.0865478515625,-16.025585522781235,-7.0302902763376744,-98,-646,283,10,9,10,8,
381,242,-204,-63,714,745.2388916015625,16.6460018157959,72.83492279052734,-15.886805116523238,-4.849381045021437,-100,-326,131,13,7,7,8,
382,242,-220,-113,776,814.4599609375,17.675779342651367,62.80986785888672,-15.671267388877283,-7.975071852204935,-215,-16,300,8,9,8,9,
383,246,-258,-147,704,764.0608520507812,22.86749839782715,60.323387145996094,-19.734946961524457,-11.09247294720837,396,75,-498,9,10,13,12,
384,246,-228,-118,708,753.1082153320312,19.928913116455078,62.63298797607422,-17.622568990755763,-9.014475092974177,167,-37,183,8,5,9,9,
385,246,-220,-105,708,748.7916870117188,18.9970703125,64.48272705078125,-17.085994361085238,-8.06091915458991,63,-436,-423,10,8,10,10,
386,246,-228,-66,725,762.8663330078125,18.126005172729492,73.85253143310547,-17.389914347908643,-4.963195806055892,-34,-253,-159,10,6,6,6,
387,246,-210,-187,789,837.6096801757812,19.613506317138672,48.31181716918945,-14.519733340995428,-12.900248319693546,-120,-505,995,33,12,21,13,
388,247,-188,-108,758,788.3983764648438,15.960108757019043,60.12046813964844,-13.795555613407565,-7.873510114920765,-263,104,106,13,18,13,14,
389,247,-235,-78,713,754.7701416015625,19.148706436157227,71.6350326538086,-18.14079109145398,-5.93169182766877,-316,-83,-133,9,10,10,8,
390,247,-233,-90,738,779.1232299804688,18.6964111328125,68.87686920166016,-17.400799436797513,-6.633299295336396,72,-4,-450,8,7,9,8,
391,247,-231,-132,708,756.3392333984375,20.593326568603516,60.251583099365234,-17.783344676212305,-10.051009499886671,2,-207,-164,7,6,6,6,
392,247,-221,-168,763,811.9322509765625,19.991077423095703,52.75483322143555,-15.79463779810324,-11.941554799002077,-77,-118,312,19,8,13,9,
393,252,-216,-145,774,816.5518798828125,18.576339721679688,56.123023986816406,-15.338847247265186,-10.228598985176582,-292,25,-42,15,10,15,11,
394,252,-216,-42,710,743.31689453125,17.217269897460938,78.99347686767578,-16.89324508274675,-3.2391367507650703,-186,-313,522,10,8,8,10,
395,252,-198,-122,720,756.62939453125,17.898927688598633,58.35662841796875,-15.170180889149659,-9.278960501455561,-107,-168,531,11,8,8,10,
396,252,-233,-90,670,715.0447387695312,20.44355010986328,68.87686920166016,-19.017305965561736,-7.230783224894934,147,-186,202,9,7,8,7,
397,252,-207,-129,708,748.8350830078125,19.006715774536133,58.06572341918945,-16.047212318547178,-9.91968644416517,68,-23,-662,10,6,10,7,
398,254,-239,-52,704,745.2791137695312,19.15672492980957,77.72225189208984,-18.70436867532074,-4.0009213304993665,17,-663,-173,14,9,12,12,
399,254,-219,-89,712,750.21728515625,18.364761352539062,67.8802261352539,-16.972664374391417,-6.813174994314839,49,-121,-29,12,5,8,10,
400,254,-184,-135,787,819.4205322265625,16.168811798095703,53.72894287109375,-12.976354867738744,-9.48274496283206,162,148,492,8,7,11,9,
401,254,-221,-112,729,769.9519653320312,18.768888473510742,63.12123489379883,-16.680283544241966,-8.364127509194681,-62,-232,316,15,7,10,10,
402,254,-237,-98,726,769.9668579101562,19.453893661499023,67.53148651123047,-17.927026165834828,-7.3123381475611335,-55,-357,270,12,8,10,12,
403,254,-210,-54,721,752.8990478515625,16.735843658447266,75.5761489868164,-16.19586791674546,-4.11294295320607,-208,-292,-78,7,9,8,6,
404,254,-224,-138,775,818.4406127929688,18.749216079711914,58.36038589477539,-15.884034331922551,-9.707205390566337,-125,-91,204,8,6,8,8,
405,254,-215,-124,783,821.3951416015625,17.585447311401367,60.02252197265625,-15.173913190059592,-8.682718404089199,-553,-243,-197,7,7,8,6,
406,254,-206,-100,720,755.536865234375,17.6406307220459,64.10294342041016,-15.822244196386295,-7.605769977345634,37,-10,748,8,8,9,7,
407,254,-209,-97,695,732.19873046875,18.339740753173828,65.09990692138672,-16.58524850444706,-7.61279224710668,-45,-250,-525,12,6,8,9,
408,259,-228,-96,750,789.7467651367188,18.252941131591797,67.16301727294922,-16.78015052145539,-6.982024728729809,-101,-445,-341,6,6,8,9,
409,259,-226,-143,765,810.401123046875,19.267375946044922,57.6730842590332,-16.193027277980903,-10.163389200329703,112,380,84,19,11,9,8,
410,259,-195,-141,740,778.1426391601562,18.01161003112793,54.126461029052734,-14.512825922359996,-10.439705383300838,50,-306,138,11,8,8,12,
411,259,-253,-64,732,777.128662109375,19.61986541748047,75.80093383789062,-18.999348653597103,-4.7239120739574965,-52,-341,8,9,9,10,10,
412,259,-233,-108,741,784.2410278320312,19.11302375793457,65.12797546386719,-17.28365753972683,-7.915515258791288,-27,98,641,4,5,6,5,
413,262,-219,-105,726,765.546875,18.4946346282959,64.381103515625,-16.622818928474732,-7.883358906787733,-7,-304,484,7,8,7,7,
414,262,-224,-104,720,761.1780395507812,18.930269241333008,65.09184265136719,-17.11440963973974,-7.852904093694881,-28,-286,116,6,6,6,7,
415,262,-230,-76,733,771.9876708984375,18.284832000732422,71.71145629882812,-17.333449126016063,-5.649758348746572,-1,-138,-983,9,9,6,7,
416,262,-208,-141,760,800.4655151367188,18.293855667114258,55.863590240478516,-15.061090893206957,-10.145442804030514,-234,-176,725,11,7,9,10,
417,262,-263,-143,687,749.39111328125,23.543371200561523,61.46242141723633,-20.545530206771,-11.000735235760333,305,-338,-157,10,9,11,9,
418,266,-219,-92,714,752.4765625,18.399568557739258,67.20982360839844,-16.920167230344955,-7.022721436635923,260,197,335,12,7,9,5,
419,266,-234,-60,715,754.7059326171875,18.66594696044922,75.61553192138672,-18.062518025975802,-4.559893381934114,3,-425,1397,7,5,8,6,
420,266,-234,-87,686,730.014404296875,19.995441436767578,69.60186767578125,-18.695683494405376,-6.844534248547447,225,-398,-885,13,10,12,13,
421,266,-219,-91,771,806.6492309570312,17.095359802246094,67.43256378173828,-15.753156221935932,-6.477461011628247,90,-176,622,10,11,10,12,
422,267,-185,-163,783,820.9037475585938,17.476919174194336,48.613460540771484,-13.024129043435385,-11.452860327568661,-217,-271,-156,11,12,11,10,
423,267,-243,-67,735,777.0218505859375,18.927249908447266,74.58228302001953,-18.22398144382731,-4.946566212478892,-95,99,-1272,6,5,7,8,
424,267,-225,-108,693,736.57177734375,19.803951263427734,64.35558319091797,-17.786394725412357,-8.431403380238221,-41,-1,1033,11,8,10,8,
425,267,-207,-85,757,789.3814086914062,16.465721130371094,67.6722640991211,-15.202462399538351,-6.181551893773129,-68,18,-197,11,10,14,11,
426,267,-209,-141,725,767.5851440429688,19.17276954650879,55.99111557006836,-15.800133358102245,-10.58493920692379,-203,-78,990,12,10,13,11,
427,270,-255,-146,795,847.5647583007812,20.28265953063965,60.20321273803711,-17.5093824278034,-9.919143139277145,-151,50,242,8,9,8,9,
428,270,-260,-141,783,837.0006103515625,20.69160270690918,61.52518081665039,-18.0973816685437,-9.698214440830785,274,148,-289,10,11,7,7,
429,270,-222,-127,702,747.1392211914062,20.016130447387695,60.22379684448242,-17.285508445837742,-9.786755590989568,71,-83,47,8,6,7,6,
430,270,-234,-106,723,767.2815551757812,19.558549880981445,65.62651062011719,-17.756526927506062,-7.9408127384612675,264,-377,-1234,9,11,10,10,
431,270,-217,-122,699,742.0067138671875,19.60091209411621,60.65127182006836,-17.004701462777508,-9.463484204465814,287,-234,-541,11,11,9,7,
432,273,-227,-84,742,780.47998046875,18.064414978027344,69.69005584716797,-16.90865145845744,-6.178487424918141,-228,-651,1244,9,7,11,18,
433,273,-237,-151,754,804.6651611328125,20.438385009765625,57.49392318725586,-17.12950334641591,-10.816004924975424,62,-188,774,8,7,12,17,
434,273,-228,-111,700,744.5166015625,19.911523818969727,64.03780364990234,-17.832718567130105,-8.574195733171157,9,-643,3,14,7,13,9,
435,273,-237,-124,742,788.7388916015625,19.82134246826172,62.37766647338867,-17.486415910737193,-9.04516536560832,26,-353,81,7,7,8,7,
436,273,-234,-74,738,777.7377319335938,18.392444610595703,72.44783020019531,-17.510022773357115,-5.45982404200009,-29,-197,-164,7,7,6,8,
437,274,-207,-103,763,797.26220703125,16.8560848236084,63.54233169555664,-15.048616139203933,-7.42291106683427,-35,-228,-802,7,10,7,5,
438,274,-224,-147,750,796.4201049804688,19.656497955322266,56.721473693847656,-16.33533575437709,-10.636410415373197,-19,-128,137,8,6,10,11,
439,274,-255,-155,764,820.2109375,21.333208084106445,58.7033805847168,-18.113213626949907,-10.8930176636613,-82,-72,346,10,8,8,7,
440,274,-262,-99,745,795.9082641601562,20.601543426513672,69.29702758789062,-19.219234272047,-7.145310470465751,4,11,633,9,6,10,11,
441,274,-222,-69,750,785.2037963867188,17.2196044921875,72.73103332519531,-16.42315653447169,-5.041384991176062,0,-188,790,8,6,10,8,
442,277,-216,-140,771,812.8327026367188,18.459745407104492,57.047149658203125,-15.41077026602321,-9.917918098693823,1,5,532,8,6,8,7,
443,277,-218,-156,781,825.7245483398438,18.94195556640625,54.4089241027832,-15.308168719980184,-10.89005459289932,61,198,-759,8,9,9,8,
444,277,-240,-115,733,779.816650390625,19.952327728271484,64.3944091796875,-17.924569684648187,-8.480370336642203,30,-280,-1382,11,9,8,9,
445,277,-243,-154,767,819.1788330078125,20.558191299438477,57.63212966918945,-17.25581596493186,-10.835688856757884,87,-218,-633,7,7,9,10,
446,277,-218,-130,733,775.7015991210938,19.097545623779297,59.18753433227539,-16.322040001334912,-9.647738447375136,6,-67,421,9,7,6,7,
447,282,-211,-124,739,778.4715576171875,18.321483612060547,59.55463790893555,-15.726396489465285,-9.165483580864082,-13,-411,1181,9,7,9,9,
448,282,-211,-96,732,767.8287353515625,17.570003509521484,65.53221130371094,-15.950146861561603,-7.1823656918601975,9,-30,1089,5,8,7,8,
449,282,-241,-85,737,780.048095703125,19.12159538269043,70.56917572021484,-17.996284293229568,-6.255808127954182,56,-28,-186,11,8,9,10,
450,282,-231,-100,736,777.8541259765625,18.878877639770508,66.58885192871094,-17.27575639838974,-7.386319590025916,139,194,-572,9,8,7,8,
451,282,-205,-99,717,752.273193359375,17.612926483154297,64.21944427490234,-15.813524834112204,-7.562124833049481,20,-372,-801,10,9,9,8,
452,289,-213,-95,723,759.6860961914062,17.876523971557617,65.95932006835938,-16.282823199308805,-7.183738306323605,-9,-145,-170,11,8,8,7,
453,289,-224,-75,729,766.317138671875,17.952068328857422,71.48515319824219,-16.99613334256252,-5.616569236305893,59,-85,281,6,6,7,9,
454,289,-213,-63,746,778.3662109375,16.578737258911133,73.51998138427734,-15.881585176382742,-4.6425278580111,-47,-108,772,8,9,9,9,
455,289,-213,-165,800,844.15283203125,18.6109561920166,52.2331428527832,-14.615075949353367,-11.271727417072029,-8,424,743,12,8,9,8,
456,289,-236,-125,727,774.4998168945312,20.168502807617188,62.08810043334961,-17.74088498632294,-9.287846188679135,51,-322,216,9,8,9,10,
457,282,-219,-85,720,757.3546142578125,18.06801414489746,68.78410339355469,-16.80793724799578,-6.444040632069617,35,-453,-376,6,8,7,7,
458,282,-216,-69,747,780.6574096679688,16.883604049682617,72.2810287475586,-16.062744822723307,-5.0708215991713,-79,-21,-402,9,8,8,8,
459,282,-235,-136,774,820.2420654296875,19.328584671020508,59.937496185302734,-16.648579522879587,-9.543985374179313,-256,260,-580,8,10,5,8,
460,282,-231,-164,768,818.5847778320312,20.24574089050293,54.623191833496094,-16.391214661858882,-11.557179950024867,39,185,367,7,9,7,10,
461,290,-198,-69,686,717.3291015625,16.993806838989258,70.78411102294922,-16.02304382192356,-5.519824823616489,-58,-193,575,11,6,10,9,
462,290,-222,-81,709,747.345947265625,18.431535720825195,69.95150756835938,-17.28057574640941,-6.222141963546561,-102,-75,884,10,6,9,11,
463,290,-219,-141,725,770.3681030273438,19.759363174438477,57.221500396728516,-16.51579678861908,-10.546263002340037,30,-160,1203,10,6,10,7,
464,290,-237,-93,719,762.744384765625,19.496679306030273,68.57141876220703,-18.10263144347849,-7.003393774369681,35,-315,-98,9,9,7,7,
465,290,-225,-133,738,782.9163208007812,19.49998664855957,59.408634185791016,-16.701585618442255,-9.78070630334828,114,-469,-356,8,8,7,9,
466,294,-240,-83,700,744.6401977539062,19.93775177001953,70.91969299316406,-18.802277026569325,-6.399671252437641,9,-85,-1189,9,13,8,7,
467,294,-248,-117,709,760.1802368164062,21.14248275756836,64.73987579345703,-19.040621098325555,-8.853635575128978,-51,-150,465,8,9,8,10,
468,294,-214,-163,734,781.7423095703125,20.125581741333008,52.700355529785156,-15.887387539708524,-12.034967499235933,-1,-237,754,12,8,8,8,
469,294,-221,-76,714,751.2742309570312,18.121919631958008,71.01913452148438,-17.107586390267095,-5.806056416621645,35,-346,128,10,8,8,7,
470,294,-231,-69,715,754.5508422851562,18.631071090698242,73.36589813232422,-17.826905739257693,-5.246749699980967,-55,-330,1268,9,8,7,10,
471,295,-230,-72,752,789.6759033203125,17.767847061157227,72.61444854736328,-16.933329780953358,-5.231302393002181,68,-166,376,6,10,8,8,
472,295,-237,-196,789,846.8211059570312,21.293468475341797,50.405277252197266,-16.252458368728647,-13.382680588110269,-34,66,-47,12,11,8,6,
473,295,-211,-124,728,768.037109375,18.57948112487793,59.55463790893555,-15.945704636329836,-9.291100331158296,17,-280,-1074,14,10,11,10,
474,295,-210,-54,706,738.5472412109375,17.07098960876465,75.5761489868164,-16.519521241629494,-4.193009457052572,-26,-481,374,10,10,10,11,
475,295,-224,-39,774,806.7050170898438,16.36846923828125,80.12045288085938,-16.121355904035102,-2.771033621477584,103,-390,1484,21,8,13,14,
476,302,-214,-135,767,807.6571044921875,18.254955291748047,57.750980377197266,-15.36480946864619,-9.622163441112505,76,-253,805,9,10,13,13,
477,302,-202,-237,803,861.2677001953125,21.194353103637695,40.437522888183594,-13.564391242859056,-15.972489567530356,-84,-100,92,17,8,11,9,
478,302,-230,-139,795,839.1936645507812,18.675065994262695,58.849853515625,-15.906755628534729,-9.534135826918103,-66,94,40,14,11,11,12,
479,302,-214,-126,755,794.793701171875,18.205217361450195,59.50750732421875,-15.61977714635604,-9.121681559568973,-116,28,-474,10,11,11,7,
480,302,-210,-94,769,802.68115234375,16.65456771850586,65.88243865966797,-15.16639843768264,-6.725198787884815,-53,-296,261,7,6,6,8,
481,303,-228,-171,773,823.8652954101562,20.236534118652344,53.1263542175293,-16.065988594192046,-11.979295169973415,-85,303,-414,7,9,12,9,
482,303,-225,-155,761,808.5610961914062,19.74756622314453,55.43379592895508,-16.157106287017807,-11.051927391633397,-28,133,718,6,11,9,8,
483,303,-212,-108,741,778.26025390625,17.7989444732666,63.000709533691406,-15.807277083613462,-7.976739154319322,-171,-349,56,10,9,9,9,
484,303,-227,-119,704,749.2035522460938,20.002647399902344,62.33168411254883,-17.63718264155478,-9.139301283254152,67,-295,717,9,9,11,9,
485,303,-208,-144,746,787.7283935546875,18.73063087463379,55.30116271972656,-15.310535527182232,-10.533135157215755,-26,0,187,4,6,8,8,
486,307,-224,-142,741,787.0330200195312,19.691099166870117,57.62461471557617,-16.5357297736864,-10.39448358808329,48,-117,-415,6,6,5,5,
487,307,-233,-61,719,758.2684326171875,18.51785659790039,75.32599639892578,-17.895329649848094,-4.614227943454506,43,-163,-585,6,9,6,9,
488,307,-214,-99,727,764.2813720703125,17.967464447021484,65.1705551147461,-16.260299876825524,-7.442632898926394,3,-101,-503,6,5,7,6,
489,307,-235,-135,733,781.4979248046875,20.289121627807617,60.12046813964844,-17.499926428938647,-9.947468218702305,-10,-143,634,8,7,7,9,
490,307,-210,-105,723,760.1671142578125,17.988571166992188,63.431514739990234,-16.03682117979228,-7.939508775071284,16,-245,1206,8,9,7,9,
491,312,-211,-80,738,771.7285766601562,16.99980354309082,69.232666015625,-15.867413308269732,-5.950164155384447,-5,-148,170,5,6,6,6,
492,312,-213,-105,749,785.744873046875,17.589340209960938,63.755218505859375,-15.7285645149397,-7.679474074054636,-41,-82,-53,7,8,6,5,
493,312,-216,-109,727,766.2023315429688,18.405231475830078,63.219688415527344,-16.374225052220748,-8.17864822755759,-80,-233,-69,8,7,6,5,
494,312,-230,-114,756,798.3933715820312,18.752973556518555,63.63115310668945,-16.742955839332588,-8.209135936637626,-100,-182,-108,7,9,7,8,
495,312,-218,-96,735,772.6351318359375,17.95454216003418,66.22953796386719,-16.388643195937572,-7.137452926241485,-47,-202,-269,6,6,6,8,
496,314,-225,-72,760,795.8699340820312,17.26524543762207,72.25215148925781,-16.421982933518432,-5.1904761284206495,13,-124,-36,6,6,6,6,
497,314,-240,-122,754,800.624755859375,19.647890090942383,63.05080032348633,-17.44354304043352,-8.764934224015544,187,10,1228,14,8,10,12,
498,314,-221,-143,771,814.6968994140625,18.84850311279297,57.09113693237305,-15.73964706117357,-10.109234935063235,239,-19,365,10,10,10,12,
499,314,-204,-102,729,763.84619140625,17.370952606201172,63.431514739990234,-15.48995763505764,-7.673899368639631,148,-198,-232,6,6,9,9,
500,311,-235,-95,714,757.6582641601562,19.543195724487305,67.98541259765625,-18.069248710879865,-7.203067504774771,71,-207,-337,6,7,7,5,
501,311,-225,-111,764,804.1405639648438,18.177574157714844,63.737911224365234,-16.248378163449797,-7.934189263335924,3,-257,-142,7,6,5,6,
502,311,-211,-153,768,811.0203247070312,18.743410110473633,54.04972839355469,-15.079918143111282,-10.874083016836995,-41,-99,285,6,6,7,8,
503,311,-210,-147,757,799.223388671875,18.705181121826172,55.00428771972656,-15.233601757449494,-10.598671226493744,-87,-139,50,8,6,6,8,
504,311,-223,-88,725,763.6085205078125,18.295351028442383,68.46158599853516,-16.979794938172702,-6.617600411442844,129,-220,475,5,7,7,8,
505,316,-219,-97,716,755.0006713867188,18.494298934936523,66.10701751708984,-16.861905634633203,-7.381575989527366,-62,-215,734,8,7,8,8,
506,316,-206,-105,749,783.8762817382812,17.153308868408203,62.98822021484375,-15.236066101294671,-7.697891214824637,-15,-261,160,7,8,9,8,
507,316,-207,-99,702,738.548583984375,18.098388671875,64.4366226196289,-16.276884761218778,-7.703498832822626,35,-270,453,8,7,9,8,
508,316,-232,-78,761,799.3928833007812,17.8272647857666,71.41380310058594,-16.871142097207798,-5.599490351236829,-20,-197,-148,9,6,10,8,
509,316,-220,-94,729,767.2528686523438,18.166488647460938,66.8609619140625,-16.662721617163047,-7.037273602920226,58,-33,-456,6,9,6,7,
510,318,-210,-131,741,781.243896484375,18.46829605102539,58.040096282958984,-15.592997596445203,-9.65303300107247,27,-54,431,8,8,7,9,
511,318,-223,-95,726,765.3953247070312,18.460693359375,66.92222595214844,-16.938958044386194,-7.1298743007712355,-29,-337,539,8,4,6,8,
512,318,-229,-94,715,756.6386108398438,19.094396591186523,67.67949676513672,-17.617101928451852,-7.136503926031801,-62,-393,147,5,7,7,7,
513,318,-213,-85,735,769.9473876953125,17.32676124572754,68.24168395996094,-16.059906919709153,-6.338210122418371,-89,-119,101,8,8,8,9,
514,318,-240,-150,751,802.5590209960938,20.6472110748291,57.991024017333984,-17.400157949917205,-10.772051509115792,-16,-90,230,8,9,7,7,
515,326,-229,-137,747,793.2332763671875,19.65625762939453,59.106319427490234,-16.779656968992477,-9.94547189144093,-116,-98,48,9,10,9,11,
516,326,-210,-76,711,745.2496337890625,17.435678482055664,70.10132598876953,-16.366754799484177,-5.853156108432024,30,-70,243,6,7,8,8,
517,326,-225,-51,739,774.175048828125,17.33563995361328,77.2257308959961,-16.895793504079794,-3.777185042749693,22,-82,668,11,7,9,8,
518,326,-236,-107,762,804.8533935546875,18.778867721557617,65.6075668334961,-17.050897344703102,-7.639717187596049,-12,-204,12,11,10,9,9,
519,326,-242,-135,786,833.4176635742188,19.41828155517578,60.84147262573242,-16.88014555943364,-9.32205071849903,-65,-85,754,9,10,12,14,
520,328,-212,-123,745,784.2818603515625,18.20859718322754,59.874629974365234,-15.68277341370575,-9.02302555309254,-60,19,648,11,11,9,7,
521,328,-249,-95,744,790.2923583984375,19.705873489379883,69.11357116699219,-18.365237453087573,-6.904146219753579,-36,109,95,11,9,11,12,
522,328,-232,-103,722,765.3214721679688,19.368274688720703,66.05706787109375,-17.646331372337812,-7.73456313664109,-122,-52,-448,6,6,9,6,
523,328,-223,-111,698,741.11669921875,19.63810920715332,63.53437805175781,-17.51150325954195,-8.6138284802706,-31,-266,-303,9,6,9,9,
524,328,-240,-116,692,741.56591796875,21.065006256103516,64.2005615234375,-18.883168190111455,-8.999494146539776,-151,-325,823,10,10,14,10,
525,327,-228,-66,752,788.5708618164062,17.515586853027344,73.85253143310547,-16.80591608231455,-4.801027437948438,51,-120,129,16,15,12,13,
526,327,-207,-115,752,788.4021606445312,17.476707458496094,60.941890716552734,-15.221801202131202,-8.38735174567999,-12,-89,-576,7,5,8,6,
527,327,-214,-120,735,774.8683471679688,18.457300186157227,60.71505355834961,-16.032104604419448,-8.908967453205824,-101,-221,-370,6,6,5,7,
528,327,-213,-87,738,773.0343017578125,17.313508987426758,67.77909088134766,-15.994053350812022,-6.461959294158989,78,-120,203,6,7,7,5,
529,327,-205,-88,693,728.0233764648438,17.842208862304688,66.76435089111328,-16.354787909572636,-6.942618058117795,-211,-543,1213,8,6,9,10,
530,327,-197,-67,760,787.9708251953125,15.309663772583008,71.21354675292969,-14.478060181528923,-4.877665472393086,126,-104,941,9,9,9,9,
531,327,-212,-103,744,780.4415283203125,17.575899124145508,64.08381652832031,-15.761945310713116,-7.58382586551329,139,-82,-54,5,7,7,7,
532,327,-249,-138,750,802.2125854492188,20.783655166625977,61.00052261352539,-18.082828569607354,-9.90553305041688,92,-189,-1026,6,7,7,7,
533,327,-226,-107,714,756.5189819335938,19.298681259155273,64.66131591796875,-17.381742983805843,-8.131024757045187,164,-55,-504,10,9,6,7,
534,327,-229,-93,713,754.6250610351562,19.116958618164062,67.89395904541016,-17.665655360497915,-7.079129804559234,347,-179,614,10,8,11,11,
535,332,-213,-107,733,770.7833862304688,18.011951446533203,63.324005126953125,-16.042018693864904,-7.979559450817635,37,-131,127,9,8,8,7,
536,332,-207,-111,747,783.0574951171875,17.452835083007812,61.794883728027344,-15.32823905214477,-8.149242419626377,-42,-160,290,10,7,7,8,
537,332,-228,-73,735,773.0057983398438,18.039142608642578,72.24303436279297,-17.154689121287348,-5.418890491065332,60,-286,283,10,10,10,8,
538,332,-229,-130,780,823.250244140625,18.652498245239258,60.41352081298828,-16.150759395887924,-9.085644715184479,-110,-281,455,11,14,9,8,
539,332,-216,-134,752,793.7984619140625,18.674028396606445,58.182167053222656,-15.789825314477085,-9.71855524354344,-21,-217,243,10,5,9,7,
540,338,-231,-102,750,791.3690795898438,18.605743408203125,66.17237854003906,-16.971692806444587,-7.405486574980519,220,-91,98,10,10,8,9,
541,338,-239,-84,733,775.5424194335938,19.06354522705078,70.63201904296875,-17.94906628353495,-6.217978214915186,251,-98,-876,11,14,9,12,
542,338,-207,-126,731,770.1207885742188,18.33866310119629,58.667724609375,-15.592218654565913,-9.416536848127071,-126,-47,-350,8,8,9,9,
543,338,-239,-141,738,788.4453125,20.604507446289062,59.457618713378906,-17.64558683944506,-10.30178983280875,203,-270,531,10,13,10,8,
544,338,-235,-119,711,758.2261962890625,20.32666778564453,63.13966369628906,-18.05524630486384,-9.029631565408009,-167,-315,1496,7,7,10,7,
545,340,-216,-57,741,773.9418334960938,16.774673461914062,75.21418762207031,-16.2059442767111,-4.223597748164185,62,307,1246,8,8,9,7,
546,340,-233,-100,775,815.422607421875,18.114154815673828,66.76840209960938,-16.603171272832913,-7.044246505927301,8,-261,10,9,12,9,7,
547,340,-247,-139,777,827.07861328125,20.0383358001709,60.62771987915039,-17.376027323394865,-9.675124802735786,-92,143,-800,8,11,7,8,
548,340,-252,-95,748,795.0050048828125,19.798978805541992,69.34109497070312,-18.480333244212687,-6.863021927400158,-154,-92,-836,11,10,11,13,
549,340,-246,-75,752,794.760986328125,18.87824249267578,73.04153442382812,-18.03072923680214,-5.414945227563498,31,-70,46,7,6,7,7,
550,346,-182,-60,753,777.0025634765625,14.276171684265137,71.7509536743164,-13.546442081669104,-4.42877871528986,-235,-55,480,8,6,6,8,
551,346,-229,-132,772,815.9957275390625,18.89824867248535,60.03648376464844,-16.298329802696532,-9.309390290772978,-143,-45,1127,10,13,13,11,
552,346,-211,-173,775,821.6294555664062,19.39362335205078,50.647674560546875,-14.880670273006412,-12.155007403839596,-67,33,1061,10,12,11,9,
553,346,-211,-88,726,761.14453125,17.476932525634766,67.35753631591797,-16.094003885563094,-6.639119395018236,-83,-107,-286,9,11,9,8,
554,345,-217,-76,728,763.4454956054688,17.5255184173584,70.6949691772461,-16.513288653430877,-5.713182840984219,154,-142,-639,10,6,8,7,
555,345,-217,-115,716,756.9478149414062,18.929948806762695,62.07499694824219,-16.659154196447027,-8.738553449036813,-61,-49,-645,10,7,9,5,
556,345,-207,-107,713,750.111328125,18.096059799194336,62.66172790527344,-16.019174739042327,-8.200958596897246,112,-495,-550,7,12,7,7,
557,345,-208,-100,686,723.78173828125,18.592294692993164,64.31976318359375,-16.70113263485726,-7.9415724112160895,-123,-348,1012,10,12,13,10,
558,345,-245,-45,728,769.4374389648438,18.887210845947266,79.5893325805664,-18.56706424786914,-3.352815925072462,-57,2,1483,11,11,13,11,
559,343,-237,-106,699,745.6580810546875,20.37410545349121,65.89970397949219,-18.532349850820474,-8.172641587510286,-86,-70,738,8,4,6,6,
560,343,-202,-119,722,759.1106567382812,17.987401962280273,59.49374008178711,-15.432376298631427,-9.019023271984123,-78,-114,-671,8,6,10,10,
561,343,-219,-89,690,729.3709716796875,18.90934181213379,67.8802261352539,-17.473143811348105,-7.008867472047473,-9,-407,-818,8,9,7,8,
562,343,-196,-106,751,783.3600463867188,16.523847579956055,61.591270446777344,-14.48959754493519,-7.77680803964142,-145,-46,56,12,7,8,7,
563,343,-190,-156,775,813.0565795898438,17.597379684448242,50.60838317871094,-13.514184005172398,-11.061851710112874,-150,-142,-244,9,9,11,13,
564,354,-218,-145,774,817.083251953125,18.68687629699707,56.36697769165039,-15.474096277509815,-10.221876060415049,-116,-131,531,9,11,9,10,
565,354,-243,-129,715,766.103759765625,21.04372215270996,62.0342903137207,-18.49303674588812,-9.693903609849974,-166,129,638,11,10,11,7,
566,354,-223,-77,691,730.1636962890625,18.84870147705078,70.94742584228516,-17.7828907243652,-6.053428167243678,-95,-235,1458,11,9,13,11,
567,354,-221,-87,751,787.6617431640625,17.547710418701172,68.50888061523438,-16.294662685574462,-6.341458886800022,-8,-268,641,7,7,8,8,
568,354,-233,-93,784,823.1610107421875,17.742170333862305,68.23770141601562,-16.442633832499975,-6.487077245142798,-100,323,-260,6,6,7,10,
569,357,-232,-107,749,791.374755859375,18.83254051208496,65.23714447021484,-17.047279385611027,-7.770633247440023,-180,633,-512,10,8,9,8,
570,357,-250,-150,745,800.015625,21.370325088500977,59.03267288208008,-18.20958873233954,-10.80670926929106,-192,-77,-1237,6,7,7,9,
571,357,-258,-99,726,776.8146362304688,20.836618423461914,69.00387573242188,-19.39783916783516,-7.321888464702812,171,-19,-349,7,9,11,10,
572,357,-222,-171,691,745.6580810546875,22.072160720825195,52.39024353027344,-17.3209273616241,-13.257489398764314,23,-209,808,9,7,9,13,
573,357,-204,-99,712,747.235595703125,17.663169860839844,64.10955047607422,-15.843236335492724,-7.61340768852827,-175,-315,585,11,7,9,9,
574,350,-225,-100,720,760.9369506835938,18.87726593017578,66.03414916992188,-17.198804003369016,-7.551479385185655,-79,57,642,10,7,8,8,
575,350,-252,-105,717,767.2144165039062,20.842451095581055,67.37681579589844,-19.175389247031287,-7.8661154415290975,105,-106,-944,9,11,8,7,
576,350,-223,-138,717,763.4539794921875,20.088165283203125,58.24577331542969,-16.98333646078787,-10.41388245090116,136,-58,-848,10,17,10,9,
577,350,-207,-102,732,767.5134887695312,17.49553871154785,63.76463317871094,-15.646540256787304,-7.6370127422176415,-76,-307,412,8,6,8,11,
578,350,-207,-72,677,711.5911865234375,17.936126708984375,70.8177719116211,-16.911687783230597,-5.807221684205201,-36,-299,134,12,8,10,12,
579,359,-237,-69,740,780.0833129882812,18.444915771484375,73.76451873779297,-17.68680730333906,-5.074563151392979,-28,-292,1379,11,8,11,14,
580,359,-183,-141,775,808.6995849609375,16.59660530090332,52.38227844238281,-13.078700830898427,-10.041066711573809,-203,-152,292,13,10,13,9,
581,359,-217,-132,777,817.460693359375,18.09996795654297,58.684486389160156,-15.394061179475699,-9.292558725641912,-95,-118,131,8,9,9,11,
582,359,-216,-75,705,741.1517944335938,17.967144012451172,70.84864044189453,-16.94408276329865,-5.80792143887703,-144,-120,-287,7,8,6,9,
583,359,-216,-59,737,770.2636108398438,16.897504806518555,74.7193374633789,-16.285481185957593,-4.392996599351695,-123,-367,-60,7,6,5,6,
584,366,-225,-70,735,771.8484497070312,17.773468017578125,72.71533203125,-16.948259963135307,-5.203382962026868,-56,76,-678,6,7,7,8,
585,366,-195,-174,787,829.2587280273438,18.368026733398438,48.253334045410156,-13.600451806489938,-12.112152979800973,-60,-4,616,8,7,10,7,
586,366,-204,-140,776,814.48876953125,17.682146072387695,55.53551483154297,-14.504962141833055,-9.897548822366801,-226,76,1175,12,9,11,12,
587,366,-213,-92,738,773.6129760742188,17.450458526611328,66.63594055175781,-15.98176924310946,-6.829922103840481,-69,-152,-58,10,8,10,7,
588,366,-242,-77,704,748.404296875,19.83388328552246,72.3467025756836,-18.865920806341236,-5.905358572498606,85,49,285,7,4,6,5,
589,373,-219,-156,744,791.0960693359375,19.867748260498047,54.532936096191406,-16.071165786491513,-11.3729639183706,-119,-213,-20,7,9,8,11,
590,373,-237,-155,768,818.5462646484375,20.238439559936523,56.811336517333984,-16.83028045600142,-10.915442445753127,35,-234,-152,8,8,9,9,
591,373,-209,-126,722,762.1292724609375,18.67365264892578,58.91187286376953,-15.916233664251763,-9.516189677616829,-98,-13,-77,8,6,7,9,
592,373,-223,-81,735,772.3438110351562,17.887746810913086,70.0342788696289,-16.782028470944883,-6.01999766767803,-203,34,-747,6,5,8,8,
593,373,-237,-123,698,747.3298950195312,20.932092666625977,62.56779861450195,-18.489388479589483,-9.47318201717129,-102,-157,-200,7,5,6,5,
594,366,-228,-144,675,726.8734130859375,21.77498435974121,57.72074890136719,-18.280675024207852,-11.426386517170263,181,-326,1206,8,7,7,8,
595,366,-173,-69,678,703.1173706054688,15.358529090881348,68.25242614746094,-14.243723902907787,-5.631751135885274,10,-336,-549,9,8,13,13,
596,366,-241,-66,715,757.40478515625,19.2611141204834,74.68144989013672,-18.55360859287003,-4.999075389362721,-129,-452,768,10,12,9,11,
597,366,-225,-115,747,788.5803833007812,18.68688201904297,62.92446517944336,-16.578147947464938,-8.38544288141042,-277,224,777,9,7,9,9,
598,375,-206,-117,722,759.8743286132812,18.16390037536621,60.401580810546875,-15.729582449220302,-8.85722853069129,-145,-235,-1511,9,5,10,9,
599,375,-202,-100,736,769.740234375,17.024869918823242,63.65888595581055,-15.214073114855402,-7.464620452525393,-163,-167,157,8,8,8,7,
600,375,-230,-65,730,768.130859375,18.12677574157715,74.21612548828125,-17.4232598245927,-4.854231210764061,-129,-296,1173,15,8,9,14,
601,375,-234,-105,760,802.1103515625,18.64594841003418,65.83000183105469,-16.961583162886477,-7.52187360221135,-69,-92,175,8,7,12,11,
602,375,-214,-123,776,814.3101196289062,17.64267921447754,60.107627868652344,-15.23621797805348,-8.68767042768723,15,64,252,9,9,13,13,
603,371,-247,-88,768,811.527587890625,18.84865379333496,70.38704681396484,-17.719921185591524,-6.225250624031717,-150,130,336,12,6,8,8,
604,371,-280,-78,700,757.9472045898438,22.547719955444336,74.4305648803711,-21.679781279351843,-5.906739489897174,-227,-122,-655,13,9,9,8,
605,371,-258,-87,702,752.9522094726562,21.19696807861328,71.36221313476562,-20.03848437950084,-6.635071469458912,94,-150,-1388,8,8,12,9,
606,371,-219,-174,801,848.4326782226562,19.24708366394043,51.528343200683594,-14.95871763057422,-11.834418701350979,-80,-7,876,7,8,8,9,
607,371,-212,-186,783,832.2433471679688,19.80641746520996,48.73375701904297,-14.757775673883913,-12.914237130503423,67,97,184,8,7,13,11,
608,380,-221,-117,752,792.4859619140625,18.39122200012207,62.09925842285156,-16.192732181514085,-8.48999371575768,-103,-154,385,11,7,9,10,
609,380,-218,-64,693,729.2935180664062,18.14963150024414,73.63578033447266,-17.39271352426453,-5.034533968999514,-51,39,-285,6,6,7,9,
610,380,-231,-140,711,760.5800170898438,20.80002784729004,58.77802276611328,-17.680906131449515,-10.606918638455502,118,-83,-219,10,8,7,7,
611,380,-212,-88,717,752.845947265625,17.749691009521484,67.45362091064453,-16.35560871256331,-6.712637036122643,-3,-106,426,8,6,9,9,
612,380,-207,-99,700,736.6478271484375,18.14672088623047,64.4366226196289,-16.32005611397566,-7.723497202043427,93,-274,39,7,6,9,8,
613,379,-215,-69,749,782.2959594726562,16.77430534362793,72.20381164550781,-15.95200509602113,-5.060172737615876,-209,-267,465,9,7,9,8,
614,379,-212,-143,750,792.39697265625,18.825260162353516,55.995567321777344,-15.518092966058267,-10.396851493712541,-241,-58,-938,6,6,9,10,
615,379,-230,-125,667,716.5291137695312,21.4261417388916,61.4733772277832,-18.72291732895106,-10.04677431232987,-56,180,297,10,5,8,11,
616,379,-219,-75,714,750.5877685546875,17.96112632751465,71.09221649169922,-16.96403341447291,-5.7346611784349815,81,290,546,15,8,12,10,
617,379,-204,-146,768,807.9331665039062,18.087186813354492,54.4055061340332,-14.625269778183574,-10.411002484225758,128,-322,-464,19,12,15,13,
618,389,-219,-131,740,782.765625,19.02474021911621,59.10968017578125,-16.246910005240398,-9.63408803011239,-48,-278,876,10,9,11,16,
619,389,-240,-189,753,812.60693359375,22.079919815063477,51.775779724121094,-17.178271275595453,-13.449296407747282,-92,-410,-118,13,7,11,10,
620,389,-209,-95,714,750.0013427734375,17.82242202758789,65.55267333984375,-16.180613767372243,-7.2770008696773525,-162,-118,114,8,6,6,4,
621,389,-227,-89,722,762.05908203125,18.658031463623047,68.5880355834961,-17.330146027141367,-6.706813921677916,-84,-5,207,7,7,7,7,
622,389,-243,-167,732,789.1527099609375,21.93776512145996,55.49781036376953,-17.934237341253862,-12.21726840877486,7,-16,-173,15,8,15,11,
623,385,-220,-113,741,781.1849975585938,18.455360412597656,62.80986785888672,-16.357120124223425,-8.31712986279523,48,-112,751,7,7,11,9,
624,385,-208,-103,685,723.255126953125,18.71634864807129,63.652313232421875,-16.713649453818924,-8.187425518038022,88,-526,173,11,9,10,11,
625,385,-236,-74,726,766.9732666015625,18.81056785583496,72.58753204345703,-17.920858828610015,-5.536690434791433,-184,-183,-63,15,8,11,8,
626,385,-225,-156,729,778.7182006835938,20.58258819580078,55.26146697998047,-16.79428849626047,-11.556211193823257,-197,256,-712,10,8,9,7,
627,385,-264,-100,708,762.2073364257812,21.73691749572754,69.25064849853516,-20.264987378011412,-7.538819859857368,-265,-69,-242,14,12,13,14,
628,388,-225,-84,639,682.6433715820312,20.59672737121582,69.52445983886719,-19.24456454722149,-7.0682214449426475,-37,-111,527,10,9,9,11,
629,388,-245,-60,685,729.9657592773438,20.21333885192871,76.23615264892578,-19.610985320931988,-4.71478223177706,105,-284,-1008,14,12,8,7,
630,388,-217,-116,771,809.3120727539062,17.697965621948242,61.869239807128906,-15.55295941242937,-8.240678361681628,-247,-86,494,9,7,8,7,
631,388,-237,-157,762,813.3031616210938,20.457361221313477,56.47398376464844,-16.94204572667999,-11.130245780093727,-183,-346,365,8,9,10,11,
632,388,-210,-121,745,783.4321899414062,18.018760681152344,60.04631805419922,-15.548339356598817,-8.884817878357289,-174,6,-434,9,6,10,8,
633,396,-213,-93,704,741.373046875,18.267948150634766,66.40962219238281,-16.6966640307932,-7.206334543145848,31,-320,828,11,6,10,9,
634,396,-222,-99,734,773.2017822265625,18.32087516784668,65.96234893798828,-16.685481700306486,-7.356289530973567,56,190,514,10,8,9,7,
635,396,-208,-126,756,794.151123046875,17.829614639282227,58.79023742675781,-15.183715105376589,-9.129125180355679,-286,-36,-41,9,8,11,8,
636,396,-216,-150,738,783.4539184570312,19.610692977905273,55.21848678588867,-16.00386799148538,-11.037994285078193,11,-522,-446,8,8,7,6,
637,388,-231,-111,689,735.12109375,20.40146827697754,64.33140563964844,-18.31457423957548,-8.684623623059936,106,-164,-213,11,8,10,5,
638,388,-246,-130,737,787.7721557617188,20.680824279785156,62.14207458496094,-18.196267037075163,-9.498531676066058,217,-468,382,13,9,12,11,
639,388,-234,-79,694,736.6362915039062,19.587182998657227,71.34175872802734,-18.521480426254566,-6.1564825084887325,97,-663,1338,7,10,12,11,
640,388,-208,-123,720,759.4688720703125,18.550678253173828,59.398658752441406,-15.895018564436539,-9.320406128460432,370,149,-109,17,11,13,12,
641,388,-210,-93,749,783.4219970703125,17.04534912109375,66.11013793945312,-15.54854714803646,-6.817657148900466,19,299,477,10,10,8,6,
642,396,-228,-98,740,780.5049438476562,18.53748893737793,66.73743438720703,-16.984834816123634,-7.2130811664696965,-19,-21,330,10,6,6,6,
643,396,-226,-146,735,782.6985473632812,20.10383415222168,57.13319778442383,-16.78281381225212,-10.750589369645095,-61,-199,-1123,10,8,8,7,
644,396,-216,-121,724,765.1620483398438,18.876768112182617,60.73957443237305,-16.39711390311897,-9.09874456704893,5,106,-145,9,8,8,8,
645,396,-228,-169,796,845.0804443359375,19.62101936340332,53.44939041137695,-15.652175176900837,-11.535845380535934,-283,26,623,10,6,10,10,
646,396,-267,-68,735,784.944580078125,20.547029495239258,75.70849609375,-19.88609850510783,-4.969781159163365,-385,75,-351,11,8,10,8,
647,406,-237,-84,699,742.8499145507812,19.7827091217041,70.48089599609375,-18.60497268501814,-6.492780737592707,-136,-17,375,9,9,12,8,
648,406,-222,-186,729,784.4240112304688,21.665143966674805,50.03861999511719,-16.439945996344132,-13.71642576846505,109,-177,969,9,4,9,8,
649,406,-237,-140,709,760.5590209960938,21.216142654418945,59.42535400390625,-18.156458471210023,-10.607215421419982,-52,-830,-624,16,10,11,10,
650,406,-246,-70,702,747.1412353515625,20.01655387878418,74.11302185058594,-19.22356474866273,-5.375952178403042,1,-488,368,8,10,7,6,
651,406,-215,-107,719,758.0468139648438,18.467790603637695,63.538204193115234,-16.476594337723782,-8.114526245522974,40,-403,-1271,10,11,11,9,
652,406,-220,-142,749,793.4512939453125,19.2673282623291,57.15597152709961,-16.097318493556426,-10.309478634039522,-431,-165,-627,17,15,14,12,
653,406,-238,-146,776,824.70361328125,19.787202835083008,58.46957778930664,-16.773472612360557,-10.197005595414758,15,-199,2119,7,7,8,9,
654,406,-216,-100,698,737.4686279296875,18.82780647277832,65.15422058105469,-17.03128382571635,-7.793257743174237,-138,-428,-248,9,6,11,7,
655,406,-226,-58,759,794.0535278320312,17.085769653320312,75.60333251953125,-16.53587099531234,-4.188782259975914,-104,155,1163,13,7,8,11,
656,406,-227,-67,747,783.5987548828125,17.57826805114746,73.55268096923828,-16.839342554166844,-4.904946730551314,-182,10,275,7,9,9,8,
657,412,-214,-115,750,788.3660278320312,17.94621467590332,61.74367141723633,-15.7504205768675,-8.387739112089365,-346,-134,-569,5,9,8,5,
658,412,-225,-117,739,781.3034057617188,18.938549041748047,62.52210235595703,-16.737079094251495,-8.61242533770829,43,-222,-1117,6,7,5,6,
659,412,-256,-78,721,769.0650024414062,20.36174964904785,73.05152130126953,-19.443170596295083,-5.821053042259096,-102,92,-631,13,10,11,8,
660,412,-273,-117,702,762.2479858398438,22.931171417236328,66.7980728149414,-20.986695585946258,-8.829426117849291,202,-98,402,10,6,10,14,
661,412,-228,-148,747,794.9194946289062,19.99371337890625,57.00784683227539,-16.66775910866829,-10.730075306445157,127,-408,1095,7,9,13,11,
662,406,-191,-155,792,829.3189697265625,17.25162696838379,50.93622970581055,-13.315290881330906,-10.771946382598658,-29,-71,878,10,8,8,9,
663,406,-226,-66,752,787.9949340820312,17.382413864135742,73.71719360351562,-16.66670526018404,-4.804544692164009,-16,829,-669,14,6,15,10,
664,406,-222,-86,700,739.3781127929688,18.781482696533203,68.82098388671875,-17.47275907863422,-6.679418302326878,-89,4,-594,17,10,12,12,
665,406,-197,-91,648,683.3695678710938,18.512563705444336,65.20303344726562,-16.754853723638018,-7.652446956421701,-97,-179,-192,17,12,14,12,
666,406,-221,-87,716,754.3646240234375,18.34933853149414,68.50888061523438,-17.03535648861519,-6.622592538730222,-9,-294,-580,6,11,9,9,
667,416,-204,-74,717,749.1201782226562,16.836782455444336,70.05876159667969,-15.80233537684697,-5.669068709181551,-43,-165,532,9,7,9,7,
668,416,-210,-55,747,777.903564453125,16.2020206451416,75.32051849365234,-15.661668321278071,-4.054357506895677,-127,137,919,11,6,11,9,
669,416,-237,-131,719,768.303955078125,20.63570213317871,61.06519317626953,-17.967149512721605,-9.81720712720064,59,-229,924,11,7,7,8,
670,416,-221,-126,730,773.0569458007812,19.210678100585938,60.307456970214844,-16.611340645249875,-9.380448229788533,-55,21,-621,9,7,10,10,
671,416,-201,-105,716,751.053955078125,17.572006225585938,62.41449737548828,-15.522925367608412,-8.036478301582253,21,-285,-618,6,6,6,8,
672,413,-229,-80,747,785.3980102539062,17.98792839050293,70.74017333984375,-16.952088082724433,-5.84624076782107,-1,-100,-283,7,8,8,8,
673,413,-245,-155,760,813.418701171875,20.87808609008789,57.67677307128906,-17.529565412762377,-10.985103192494188,34,-45,-380,11,6,7,6,
674,413,-243,-213,768,833.2118530273438,22.81705665588379,48.760162353515625,-16.956316489814164,-14.811349331942495,-21,135,970,12,7,10,10,
675,413,-210,-104,720,757.1763305664062,18.026622772216797,63.65019607543945,-16.10188295469244,-7.894670890762545,-17,-5,617,9,7,7,6,
676,418,-220,-78,744,779.75634765625,17.41627311706543,70.47503662109375,-16.387932753394274,-5.740969653129254,66,-72,30,7,6,6,6,
677,418,-216,-89,774,808.4880981445312,16.79327964782715,67.60321044921875,-15.495657681659138,-6.320043493132792,21,-268,795,13,10,10,10,
678,418,-255,-162,775,831.8016357421875,21.29461669921875,57.568824768066406,-17.85225054462577,-11.230585044308663,-134,-69,-173,8,13,8,9,
679,418,-234,-118,728,773.7338256835938,19.7960147857666,63.235958099365234,-17.603588741487407,-8.772252326522176,-71,-75,-595,10,10,9,12,
680,418,-198,-77,682,714.32275390625,17.299840927124023,68.7462158203125,-16.092305615986657,-6.188188517439403,-27,-222,-1277,12,9,9,11,
681,419,-226,-114,678,723.7098999023438,20.470556259155273,63.22904586791992,-18.196677441149895,-9.063075054722848,111,-113,35,13,9,13,8,
682,419,-233,-127,749,794.6187744140625,19.50669288635254,61.40327072143555,-17.05097339616048,-9.196742692783014,-35,-309,1626,10,8,11,9,
683,419,-228,-96,739,779.3080444335938,18.50628662109375,67.16301727294922,-17.011715736643445,-7.07602357374854,41,-227,636,12,12,12,10,
684,419,-231,-90,738,778.5274658203125,18.566421508789062,68.71031188964844,-17.26034515038438,-6.638398262814523,18,-325,-53,9,8,6,6,
685,419,-225,-181,809,858.9918212890625,19.641551971435547,51.181453704833984,-15.184907122948719,-12.164087961457113,20,163,-689,19,11,14,11,
686,431,-234,-102,735,778.0648803710938,19.14995574951172,66.44438934326172,-17.5024221688849,-7.53284162362911,67,-31,-938,7,9,7,7,
687,431,-220,-131,732,775.4901733398438,19.27741813659668,59.22456741333008,-16.48065151681019,-9.725346420747462,2,-525,-264,9,9,9,9,
688,431,-223,-93,720,759.4590454101562,18.548458099365234,67.35857391357422,-17.07540817945537,-7.033842774008638,25,-277,-22,14,7,12,13,
689,431,-206,-80,774,804.9298095703125,15.932657241821289,68.77306365966797,-14.828280288505935,-5.703903856114257,-172,21,868,14,9,8,9,
690,431,-219,-146,747,792.013916015625,19.40781021118164,56.30628204345703,-16.052038569687404,-10.62266715834878,126,-100,921,9,8,12,10,
691,428,-202,-175,780,824.5174560546875,18.911602020263672,49.09255599975586,-14.181348386460465,-12.253968636583409,119,-216,930,10,10,11,13,
692,428,-216,-133,706,750.1873168945312,19.761098861694336,58.374114990234375,-16.733954434460372,-10.211894632098002,14,-182,-222,10,8,9,8,
693,428,-222,-111,746,786.2067260742188,18.40081787109375,63.431514739990234,-16.401614342095524,-8.11637907168854,10,-274,-1089,6,8,9,10,
694,428,-225,-78,733,770.712646484375,17.99578285217285,70.87705993652344,-16.973992705696084,-5.808565857310865,4,22,-517,8,7,6,9,
695,428,-219,-161,753,800.5567016601562,19.84613037109375,53.6744384765625,-15.876196673191558,-11.601879660105999,0,124,756,7,7,7,7,
696,430,-225,-216,759,820.5863647460938,22.337438583374023,46.16518783569336,-15.913997706779861,-15.261591970473468,-95,-68,727,9,9,10,9,
697,430,-216,-128,774,813.705078125,17.970409393310547,59.34576416015625,-15.393838151084427,-9.050511677992676,-60,-200,-220,11,10,11,10,
698,430,-222,-82,714,752.199462890625,18.33601188659668,69.72406005859375,-17.16560226622057,-6.258459437204932,-54,-277,1005,6,12,6,6,
699,430,-215,-154,724,770.7898559570312,20.064237594604492,54.38306427001953,-16.19663171728559,-11.524974560354382,-50,-200,-329,13,9,8,9,
700,430,-211,-83,731,765.3567504882812,17.230424880981445,68.52377319335938,-16.003043591464436,-6.22575096207134,-82,-347,8,9,15,9,8,
701,429,-222,-132,743,786.611083984375,19.16619873046875,59.26095962524414,-16.39294490986826,-9.660423041346458,-23,65,-403,11,9,8,7,
702,429,-237,-68,702,744.041015625,19.35063934326172,73.98764038085938,-18.57409934749414,-5.243739711147994,31,-55,-435,11,8,12,9,
703,429,-228,-121,690,736.69873046875,20.50798797607422,62.04155731201172,-18.028425753853355,-9.4534502744277,-1,-69,183,10,8,10,10,
704,429,-221,-144,708,755.5402221679688,20.431472778320312,56.90876388549805,-17.008042897865298,-10.987340939432999,-39,-282,713,17,15,14,13,
705,429,-234,-63,712,752.1096801757812,18.794132232666016,74.92841339111328,-18.12703085108068,-4.804975450420402,20,-445,928,5,9,12,10,
706,431,-229,-40,741,776.6093139648438,17.415590286254883,80.0890121459961,-17.1498361045253,-2.9523799423170383,29,-405,392,11,7,9,8,
707,431,-217,-92,762,797.6195678710938,17.185392379760742,67.02151489257812,-15.786857040943563,-6.623421039362533,-56,-6,-368,11,7,9,7,
708,431,-204,-216,824,875.9269409179688,19.82548713684082,43.3593864440918,-13.467639627258896,-14.276166662857003,-9,247,-640,10,11,9,9,
709,431,-217,-129,717,760.14404296875,19.39453887939453,59.266231536865234,-16.587076417471966,-9.770648568086017,76,-357,741,9,7,8,9,
710,431,-219,-63,727,761.8786010742188,17.401702880859375,73.94786071777344,-16.70519537154842,-4.743223417114993,43,-475,34,7,9,13,9,
711,446,-225,-67,732,768.7249145507812,17.77971839904785,73.41448974609375,-17.019219611378322,-5.000090438625409,-60,-49,813,17,15,12,14,
712,446,-215,-137,774,814.9049072265625,18.22867202758789,57.49071502685547,-15.297708098810393,-9.678400583529271,5,267,-226,18,17,17,17,
713,446,-209,-142,753,794.26318359375,18.547515869140625,55.80312728881836,-15.256280091083648,-10.29882572719906,-52,-223,824,9,11,14,14,
714,446,-219,-96,717,755.8214111328125,18.441261291503906,66.32611083984375,-16.843048661536137,-7.29708427831528,-23,34,-575,10,7,8,8,
715,446,-221,-109,738,778.0526733398438,18.462066650390625,63.743473052978516,-16.501620155574546,-8.05324738449911,23,-274,-1058,9,13,12,7,
716,446,-239,-97,729,773.2858276367188,19.482669830322266,67.90653991699219,-18.003235661555085,-7.206092995241798,-137,-323,-210,10,10,9,11,
717,446,-214,-168,755,802.524169921875,19.81468963623047,51.862648010253906,-15.465533038388363,-12.08364786950712,-125,-211,515,9,6,7,10,
718,446,-207,-111,744,780.1961059570312,17.518918991088867,61.794883728027344,-15.38584342557408,-8.179333772133878,-28,-126,593,7,7,7,8,
719,446,-228,-111,726,769.0130004882812,19.251693725585938,64.03780364990234,-17.246541849243286,-8.29911184899139,27,-111,380,6,6,6,8,
720,450,-231,-131,721,768.350830078125,20.217777252197266,60.43893051147461,-17.49628208817199,-9.8166025335631,86,-312,130,8,9,9,7,
721,450,-223,-93,735,773.6943969726562,18.19504737854004,67.35857391357422,-16.75186889876058,-6.903789628515281,-97,-120,348,6,10,6,6,
722,450,-222,-87,736,773.6594848632812,17.948413848876953,68.59690856933594,-16.675321898777437,-6.456715071435077,-80,-239,-7,6,11,8,7,
723,450,-210,-89,741,775.3076782226562,17.10630989074707,67.02896881103516,-15.715460664749475,-6.591693594296121,-35,-37,-132,6,6,8,5,
724,450,-224,-133,739,783.5725708007812,19.41627311706543,59.296722412109375,-16.610867644164585,-9.772434526918964,20,-73,436,7,5,7,7,
725,440,-227,-109,723,765.59716796875,19.20060920715332,64.3473892211914,-17.247540567721448,-8.185157409471119,-49,-218,26,7,10,5,8,
726,440,-217,-120,705,747.3379516601562,19.3762264251709,61.054100036621094,-16.879746678025732,-9.239978449870344,-103,-312,155,6,10,10,10,
727,440,-216,-103,755,792.0164184570312,17.584136962890625,64.50237274169922,-15.826283531956955,-7.472355072304012,43,-302,315,8,8,11,11,
728,440,-216,-129,749,790.1253051757812,18.565082550048828,59.14984130859375,-15.86516003452252,-9.396473698573297,1,-62,90,6,8,10,10,
729,440,-195,-161,769,809.5103759765625,18.200647354125977,50.45169448852539,-13.938859897120365,-11.4718030738647,-122,-144,-2,9,9,9,7,
730,464,-234,-123,717,764.1819458007812,20.236862182617188,62.268272399902344,-17.830963847799733,-9.262415718518643,-36,-132,451,10,7,9,10,
731,464,-212,-112,732,770.2674560546875,18.134084701538086,62.14894485473633,-15.975665404054695,-8.360676617832118,15,-121,582,8,7,10,14,
732,464,-213,-147,731,775.4605102539062,19.493770599365234,55.38517761230469,-15.942676801202932,-10.92738630371849,-136,-244,-167,9,6,10,7,
733,464,-208,-138,750,790.447998046875,18.40641212463379,56.433616638183594,-15.256574747629873,-10.05448211312298,-76,-215,-249,8,5,7,7,
734,464,-243,-137,741,791.76953125,20.627429962158203,60.5827751159668,-17.872959842839908,-9.964045216749561,-136,0,130,6,6,5,7,
735,461,-213,-94,725,761.4656982421875,17.801280975341797,66.18408203125,-16.243714898112486,-7.091031142315248,-49,-58,485,8,6,8,10,
736,461,-207,-111,735,771.618408203125,17.720115661621094,61.794883728027344,-15.561187658730594,-8.270892676916588,-68,-297,828,6,5,11,12,
737,461,-232,-117,733,777.690185546875,19.5162353515625,63.23427963256836,-17.35668532078672,-8.65274582159118,84,-270,290,6,8,7,9,
738,461,-234,-87,693,736.5962524414062,19.80923080444336,69.60186767578125,-18.522524030588464,-6.783086381067631,-68,-410,71,5,5,7,6,
739,461,-218,-76,744,778.9967651367188,17.237302780151367,70.77700805664062,-16.251079925208153,-5.5987609551595705,-45,-188,-170,7,6,6,6,
740,456,-223,-91,752,789.6290283203125,17.757238388061523,67.79771423339844,-16.404159381049432,-6.617698237453787,64,-201,-158,11,9,11,9,
741,456,-217,-147,738,783.1615600585938,19.55057144165039,55.88185501098633,-16.0861288456046,-10.818632261108968,67,-395,154,7,6,9,9,
742,456,-218,-100,727,765.541015625,18.25591278076172,65.35494995117188,-16.54485834346984,-7.505801410586665,-77,-371,169,12,9,10,9,
743,456,-222,-74,751,786.6136474609375,17.304677963256836,71.56185150146484,-16.39289042865857,-5.398033245407006,-109,-242,623,8,13,9,10,
744,456,-229,-116,757,799.3410034179688,18.730064392089844,63.132041931152344,-16.647694470433226,-8.344201899051425,-78,-125,453,8,8,8,7,
745,458,-228,-149,741,789.4719848632812,20.179841995239258,56.831390380859375,-16.786164818782073,-10.878896042438672,73,-72,61,7,9,9,11,
746,458,-201,-126,711,749.5318603515625,18.449356079101562,57.91421127319336,-15.55524485812983,-9.677653937862388,64,55,-337,11,10,11,9,
747,458,-230,-66,719,757.7710571289062,18.40526580810547,73.9856948852539,-17.669250746512375,-4.9966527721186935,59,-66,-543,11,14,11,11,
748,458,-234,-107,695,741.1005249023438,20.313533782958984,65.42366790771484,-18.40589338507961,-8.301370599511191,8,94,793,10,14,10,11,
749,458,-214,-102,702,740.9480590820312,18.657724380493164,64.51246643066406,-16.7872747935371,-7.9125483727159915,-12,-34,247,8,12,14,13,
750,466,-173,-141,769,800.7315673828125,16.1817684173584,50.815155029296875,-12.477278734204347,-10.142036220178971,-58,-22,1663,8,11,12,11,
751,466,-224,-109,726,767.5499877929688,18.936540603637695,64.04869079589844,-16.968006475538292,-8.164189966828088,-160,224,284,9,11,11,11,
752,466,-222,-64,726,761.8766479492188,17.650938034057617,73.91522216796875,-16.94093759874622,-4.818701772000652,-113,-13,-926,6,7,8,5,
753,466,-216,-131,711,754.544921875,19.55818748474121,58.7603874206543,-16.634494832330912,-9.998045675090884,-210,-69,-496,7,9,9,9,
754,469,-210,-112,720,758.3165283203125,18.28947639465332,61.924034118652344,-16.077015144210552,-8.493405299963333,48,-282,-598,8,19,10,13,
755,469,-218,-70,705,741.248291015625,17.990121841430664,72.1949462890625,-17.10348697959986,-5.418818541677564,-130,-186,-150,9,12,9,8,
756,469,-198,-102,753,785.2496337890625,16.475427627563477,62.741207122802734,-14.60472209123526,-7.463524648638185,-111,44,166,15,10,11,10,
757,469,-226,-143,774,818.90234375,19.05956268310547,57.6730842590332,-16.020376180718912,-10.056778144550869,-37,-122,996,9,9,11,12,
758,469,-219,-156,758,804.2766723632812,19.52875518798828,54.532936096191406,-15.800839804994519,-11.18415709504243,81,-197,1289,8,8,11,10,
759,461,-198,-87,718,749.8646240234375,16.760801315307617,66.2762451171875,-15.310371706129645,-6.662514636852587,-102,86,450,7,7,9,8,
760,461,-207,-71,718,750.6090698242188,16.94843864440918,71.06507110595703,-16.00826630401392,-5.427713580000785,49,-96,-386,8,7,10,11,
761,461,-222,-107,731,771.42333984375,18.628305435180664,64.26335906982422,-16.72507780985434,-7.9728963284681535,30,-321,-1085,8,7,6,6,
762,461,-211,-119,716,755.8690185546875,18.690073013305664,60.57430648803711,-16.20941418691119,-9.05802712396584,-48,-353,-1163,8,7,7,8,
763,461,-221,-60,732,766.984375,17.369709014892578,74.80760955810547,-16.746721260299047,-4.486744438295424,39,-282,768,10,8,9,11,
764,477,-237,-126,753,799.4085083007812,19.616880416870117,61.99937057495117,-17.245657380462955,-9.068578169354307,-26,-297,846,8,8,14,9,
765,477,-224,-127,762,804.3314208984375,18.669204711914062,60.44478988647461,-16.17023353752581,-9.084742316023034,87,-119,859,11,7,9,6,
766,477,-235,-106,743,786.4540405273438,19.133262634277344,65.71821594238281,-17.386117041431042,-7.746025072347293,258,-106,338,8,14,9,10,
767,477,-231,-102,743,784.7381591796875,18.76883316040039,66.17237854003906,-17.11950575267151,-7.468416881219052,160,-69,-320,7,10,7,7,
768,477,-192,-88,747,776.2841186523438,15.785482406616211,65.37305450439453,-14.319697411195342,-6.509073682640701,-234,-118,-422,10,8,8,7,
769,471,-230,-125,762,805.7102661132812,18.95723533630371,61.4733772277832,-16.5864918838052,-8.925067945790932,-312,-2,-129,8,13,7,8,
770,471,-246,-131,774,822.6499633789062,19.801124572753906,61.960304260253906,-17.39956910585177,-9.162871667248872,68,1,472,8,14,8,9,
771,471,-202,-107,708,743.9872436523438,17.891380310058594,62.08622741699219,-15.754142572709862,-8.268935020731902,-169,23,639,9,11,7,9,
772,471,-178,-78,695,721.659912109375,15.620166778564453,66.33351135253906,-14.279576578160084,-6.204887278213651,-189,302,803,7,10,9,9,
773,471,-171,-117,731,759.7966918945312,15.822729110717773,55.615989685058594,-13.006418665756017,-8.858140987560747,-160,27,1298,7,8,7,7,
774,480,-228,-107,706,749.5792236328125,19.63132095336914,64.85601806640625,-17.708275419538055,-8.20682040532088,-87,-282,420,10,6,7,9,
775,480,-229,-81,711,751.3474731445312,18.85992431640625,70.51748657226562,-17.745274745112695,-6.188874584569983,-73,-228,-583,10,10,9,8,
776,480,-237,-71,732,772.6797485351562,18.672483444213867,73.31978607177734,-17.86195882337565,-5.272231894370172,-46,84,-1280,7,10,8,7,
777,480,-231,-115,723,767.6685180664062,19.639680862426758,63.53081512451172,-17.5123351058894,-8.615581894573754,-12,-20,-710,8,7,12,7,
778,480,-236,-135,720,769.6239624023438,20.685338973999023,60.2254524230957,-17.857054326129084,-10.102538542862339,-66,-230,1336,11,11,7,8,
779,482,-236,-110,701,747.7947387695312,20.374753952026367,65.00630187988281,-18.39671398492796,-8.458857346560436,-124,-145,1232,8,11,12,7,
780,482,-191,-91,740,769.6505737304688,15.953359603881836,64.5216064453125,-14.368927222806608,-6.790277696057423,-162,-293,899,9,9,9,9,
781,482,-215,-114,748,786.5907592773438,18.019607543945312,62.062538146972656,-15.862604970138994,-8.333181741104752,-188,-154,-244,6,14,11,10,
782,482,-261,-138,769,823.7268676757812,21.00093650817871,62.129520416259766,-18.47268920302774,-9.644311858191793,-224,7,-1062,7,11,7,9,
783,482,-252,-83,705,753.2715454101562,20.621070861816406,71.76673126220703,-19.544611754683952,-6.326039524861874,58,-177,-963,7,8,5,7,
784,492,-192,-78,717,746.34912109375,16.11903190612793,67.88724517822266,-14.907083515880723,-5.9988632914554945,-85,-66,121,9,11,9,8,
785,492,-233,-102,789,828.9837036132812,17.865520477294922,66.3543701171875,-16.32389937652352,-7.06771070672409,-77,-186,1528,9,10,14,10,
786,492,-201,-146,783,821.4657592773438,17.600980758666992,54.00281524658203,-14.163193782920429,-10.237629630911314,-35,165,929,9,13,13,12,
787,492,-220,-98,758,795.3414306640625,17.62453842163086,65.98583984375,-16.058028032730945,-7.0778314888879,77,-55,530,11,11,11,9,
788,492,-242,-106,711,758.4991455078125,20.382253646850586,66.34243774414062,-18.60554942894598,-8.033360265118619,-27,86,9,13,10,11,12,
789,487,-237,-81,714,756.6544799804688,19.32795524597168,71.1277847290039,-18.253444768718534,-6.14529924449352,21,4,-1027,10,6,9,9,
790,487,-213,-114,736,774.6360473632812,18.170053482055664,61.84033203125,-15.960097670706919,-8.462721062781863,-1,-63,-813,8,9,7,6,
791,487,-235,-137,777,823.2393188476562,19.292451858520508,59.75518035888672,-16.58620896757022,-9.579488771353763,-268,210,-192,6,9,9,8,
792,487,-219,-105,730,769.3412475585938,18.400121688842773,64.381103515625,-16.53847279441159,-7.844232574359608,-61,44,1063,10,10,12,10,
793,487,-223,-93,717,756.615478515625,18.620737075805664,67.35857391357422,-17.141562980172235,-7.060411870791868,-133,-52,894,9,18,10,12,
794,496,-215,-130,738,779.5953979492188,18.798675537109375,58.837120056152344,-16.00874547352882,-9.599094429221653,22,-116,44,13,13,11,11,
795,496,-204,-92,721,754.93115234375,17.24127197265625,65.7221908569336,-15.677556566135282,-6.999773644476892,72,-302,-73,13,12,12,14,
796,496,-226,-91,688,729.8637084960938,19.497867584228516,68.06427764892578,-18.03795004838989,-7.162323693747755,-136,-209,42,11,10,12,12,
797,496,-193,-90,761,790.234130859375,15.631184577941895,64.9959716796875,-14.136417094502713,-6.539623140406955,-215,-68,763,11,15,16,15,
798,496,-187,-123,770,801.87158203125,16.206064224243164,56.661285400390625,-13.485803652062991,-8.823500075611364,-154,-249,-197,14,11,12,13,
799,494,-229,-120,713,758.426025390625,19.928749084472656,62.34120559692383,-17.574228944891377,-9.103734359709014,48,-216,-811,9,9,9,12,
800,494,-197,-165,708,753.19189453125,19.946460723876953,50.047855377197266,-15.162263608709077,-12.654279534986962,-223,-430,1405,13,13,13,16,
801,494,-198,-104,719,752.9813842773438,17.27663803100586,62.28571701049805,-15.245456080104798,-7.938935646110764,-152,-333,391,17,16,17,15,
802,494,-200,-117,772,806.02294921875,16.704490661621094,59.66881561279297,-14.366994656238495,-8.346379887006828,-203,-93,189,13,13,14,17,
803,492,-223,-135,765,808.1948852539062,18.814857482910156,58.8065071105957,-16.017058785440295,-9.615699749965838,-279,65,305,15,11,15,15,
804,492,-258,-102,717,768.8023071289062,21.15106964111328,68.42540740966797,-19.60823210527782,-7.624134112552072,-271,-16,-359,8,13,9,12,
805,492,-261,-75,728,777.0006713867188,20.4547176361084,73.96453857421875,-19.62770508936513,-5.539100255628175,28,186,-1460,10,13,10,11,
806,492,-242,-115,699,748.592041015625,20.97036361694336,64.5792236328125,-18.861011534409535,-8.836869868933245,170,-289,837,11,11,12,11,
807,492,-224,-147,767,812.4494018554688,19.253162384033203,56.721473693847656,-16.004299217059472,-10.42418769792345,-22,-262,1031,8,8,13,11,
808,494,-205,-172,808,851.1597900390625,18.322050094604492,49.99869155883789,-13.936586053446689,-11.658455171368557,-237,3,412,14,11,13,9,
809,494,-227,-104,738,779.094970703125,18.690269470214844,65.38175201416016,-16.939616530919224,-7.671209825634365,-57,154,-549,18,17,20,23,
810,494,-251,-105,713,763.1480712890625,20.88456153869629,67.29581451416016,-19.202070855878258,-7.908296721731415,66,-63,-346,11,15,16,17,
811,494,-237,-138,690,742.5045166015625,21.67400360107422,59.78512191772461,-18.61394449253935,-10.711127586016342,235,-169,-810,18,22,22,18,
812,494,-212,-82,756,789.4326782226562,16.732255935668945,68.85063171386719,-15.577839340831574,-5.962184894926612,183,-11,-257,19,22,22,22,
813,504,-231,-81,682,724.6005859375,19.74247169494629,70.67359161376953,-18.5901471807776,-6.418264954254091,-85,-422,625,17,18,20,19,
814,504,-217,-93,755,791.0518188476562,17.362354278564453,66.7980728149414,-15.921393903844361,-6.751591926171783,-95,-128,482,15,18,22,16,
815,504,-231,-126,756,800.4829711914062,19.188594818115234,61.386043548583984,-16.77270924068841,-9.056303411315263,54,121,-149,12,14,18,13,
816,504,-207,-110,767,802.0211791992188,16.992145538330078,62.01029968261719,-14.957229130213417,-7.8831638310745875,-21,-247,610,11,13,16,14,
817,504,-216,-80,702,738.8233642578125,18.163476943969727,69.6736068725586,-16.999103619303916,-6.2161904568863005,-58,-255,665,13,14,12,10,
818,512,-234,-66,704,744.8006591796875,19.050491333007812,74.24571228027344,-18.311199417677916,-5.083894745061591,-59,-104,-1163,18,22,25,23,
819,512,-245,-135,740,791.1068115234375,20.705366134643555,61.14083480834961,-18.040711618661668,-9.825438723635411,40,60,1478,12,12,9,12,
820,512,-207,-149,705,749.7166137695312,19.886619567871094,54.24969482421875,-16.02783557633158,-11.463390288846199,-103,-36,-757,11,11,14,11,
821,512,-225,-84,717,756.1547241210938,18.516845703125,69.52445983886719,-17.310998245436924,-6.378059258763637,-141,-292,-1035,7,9,10,8,
822,512,-219,-63,705,740.9149780273438,17.910581588745117,73.94786071777344,-17.192348432650633,-4.877749964128023,-115,-302,616,9,10,8,12,
823,509,-188,-118,715,748.6608276367188,17.24424171447754,57.88157653808594,-14.543505273602456,-9.068475924803023,-163,-501,489,12,9,12,10,
824,509,-222,-159,770,816.9852905273438,19.52400779724121,54.385440826416016,-15.767280249317546,-11.222405692769751,-526,-319,-572,11,10,11,12,
825,509,-219,-138,754,797.1957397460938,18.94559097290039,57.77985763549805,-15.944909697999837,-9.968504478681028,-217,-100,714,7,10,10,7,
826,509,-230,-72,710,749.789306640625,18.747440338134766,72.61444854736328,-17.863650217209557,-5.510431496261654,-198,52,862,8,8,9,10,
827,509,-243,-108,717,764.7234497070312,20.34662628173828,66.03414916992188,-18.527629076575195,-8.11888372171257,80,23,-155,11,10,11,10,
828,510,-216,-195,717,773.8023071289062,22.088150024414062,47.921077728271484,-16.20894761972916,-14.596032779516237,-99,-142,-275,17,16,18,16,
829,510,-217,-96,747,783.7818603515625,17.620466232299805,66.1322250366211,-16.07305267523089,-7.03542876896381,-78,5,1134,19,23,25,29,
830,510,-208,-162,749,794.0459594726562,19.38969612121582,52.08312225341797,-15.185774232261663,-11.77204404190493,-111,-55,-625,19,23,23,23,
831,510,-282,-59,738,792.2430419921875,21.323017120361328,78.18003845214844,-20.851763863680905,-4.27089094348627,88,-195,-659,13,12,13,13,
832,510,-231,-134,722,769.8058471679688,20.296300888061523,59.87901306152344,-17.46214832008414,-10.024534922212665,-104,-11,956,11,11,14,12,
833,522,-250,-205,735,802.9632568359375,23.741220474243164,50.6444206237793,-18.140410502220167,-14.791619052526315,218,83,-1154,11,10,13,15,
834,522,-268,-81,709,762.27685546875,21.546281814575195,73.17999267578125,-20.583881418491412,-6.099800297895529,-118,-276,638,11,8,10,10,
835,522,-221,-89,706,745.1160888671875,18.645448684692383,68.06131744384766,-17.25338967845509,-6.860042656925858,-21,-480,678,7,11,11,7,
836,522,-189,-123,765,797.5430908203125,16.421794891357422,56.9405403137207,-13.708235320436055,-8.87177268437693,-216,-378,-1033,9,10,11,12,
837,522,-243,-163,782,834.9503173828125,20.512584686279297,56.143348693847656,-16.919947338322345,-11.25764582984338,91,157,173,19,12,17,14,
838,523,-209,-107,738,774.4507446289062,17.64655303955078,62.88584899902344,-15.656452093707207,-7.941527860965195,-174,-438,69,21,22,25,27,
839,523,-235,-98,742,784.4699096679688,18.937427520751953,67.35950469970703,-17.431499254396996,-7.1764319842082385,-79,-380,800,21,30,27,29,
840,523,-197,-84,753,782.8626708984375,15.874127388000488,66.9034652709961,-14.57461279392858,-6.159609733306759,-141,-67,784,18,22,22,22,
841,523,-222,-111,774,812.8228759765625,17.77768898010254,63.431514739990234,-15.850143134872699,-7.848901591908084,-157,-87,78,17,18,19,19,
842,513,-230,-144,744,791.94189453125,20.03639030456543,57.94624710083008,-16.883422179765546,-10.47645868649202,-1,-29,-183,15,15,17,16,
843,513,-264,-83,717,768.5531616210938,21.103023529052734,72.54399871826172,-20.090414273880366,-6.199756366404919,-522,204,-1442,17,19,19,22,
844,513,-318,-69,714,784.6534423828125,24.49881362915039,77.75465393066406,-23.908327854367595,-5.044930263194332,88,281,-28,13,15,14,12,
845,513,-184,-115,680,713.7793579101562,17.69525909423828,57.991024017333984,-14.938538047097197,-9.271574815743996,15,84,1019,13,14,16,13,
846,513,-243,-97,726,771.70849609375,19.81669807434082,68.2359619140625,-18.35391614196554,-7.220900460198126,153,32,141,11,9,9,10,
847,508,-183,-181,798,838.483154296875,17.87470817565918,45.310829162597656,-12.606341474454124,-12.466338249725608,4,-211,659,16,14,14,13,
848,508,-261,-63,726,774.0581665039062,20.293792724609375,76.426513671875,-19.705399211230993,-4.668423497310491,-43,-80,-207,7,10,9,12,
849,508,-206,-110,699,736.978271484375,18.47188949584961,61.89516830444336,-16.23154500847857,-8.583936453140943,-210,44,-262,10,8,7,8,
850,508,-249,-174,755,813.8193969726562,21.915184020996094,55.05065155029297,-17.81621156291114,-12.34552568191118,42,-183,-443,13,11,8,8,
851,508,-177,-77,668,695.3286743164062,16.114843368530273,66.48625183105469,-14.747269795932446,-6.357917022000682,7,-334,376,11,10,13,12,
852,531,-222,-79,758,793.7814331054688,17.266611099243164,70.40837097167969,-16.240746352412856,-5.711738777838612,-117,-110,446,9,11,9,8,
853,531,-198,-154,762,802.2244262695312,18.218624114990234,52.12123489379883,-14.28904502925765,-11.067553775438016,-125,-372,294,10,8,9,11,
854,531,-234,-157,708,762.0164184570312,21.70088768005371,56.13709259033203,-17.883345751897586,-11.889936166985947,-76,-236,690,10,9,9,9,
855,531,-227,-111,708,751.7406616210938,19.639434814453125,63.93854904174805,-17.5757146889597,-8.491188428802598,-118,-443,477,13,10,9,9,
856,531,-248,-63,683,729.3572387695312,20.53574562072754,75.74345397949219,-19.878422324917892,-4.9552367599227525,-164,-398,26,8,9,10,10,
857,528,-231,-89,721,762.3142700195312,18.94757080078125,68.92597961425781,-17.639361072337007,-6.704558491230215,-1,-109,-790,11,9,10,9,
858,528,-190,-96,756,785.3992919921875,15.724042892456055,63.190757751464844,-13.999603165532791,-7.020867398335843,-582,-68,-893,13,8,9,12,
859,528,-214,-168,760,807.2298583984375,19.694364547729492,51.862648010253906,-15.373143102929848,-12.012153357840049,-338,198,911,9,8,12,9,
860,528,-229,-93,718,759.3510131835938,18.993389129638672,67.89395904541016,-17.552123807598672,-7.03484803855116,151,-479,458,24,13,16,16,
861,528,-226,-107,726,767.8547973632812,19.00271224975586,64.66131591796875,-17.117154442047735,-8.010192584596338,-75,126,1378,6,8,10,8,
862,527,-243,-162,781,833.8189086914062,20.500890731811523,56.30628204345703,-16.943598264733502,-11.203062699308203,-50,139,35,11,10,9,10,
863,527,-213,-135,762,802.6444091796875,18.30948257446289,57.62975311279297,-15.389106811805162,-9.68283323463495,-159,-241,-729,12,10,8,8,
864,527,-236,-109,759,802.2830200195312,18.904115676879883,65.2060775756836,-17.10720663747609,-7.808484555641958,28,-38,-199,7,7,6,8,
865,527,-252,-91,696,745.788818359375,21.052322387695312,70.14154815673828,-19.748814895098434,-7.008607509772951,-41,213,-1090,10,12,16,12,
866,527,-253,-131,695,751.129150390625,22.288349151611328,62.622032165527344,-19.683628385402425,-10.043982021940499,228,-52,-210,9,7,14,10,
867,532,-204,-88,714,747.767333984375,17.28211784362793,66.66261291503906,-15.831673593910086,-6.758438962187893,-21,30,1238,14,10,17,16,
868,532,-249,-71,708,753.8607177734375,20.0860538482666,74.08187866210938,-19.286969246327292,-5.40423227760224,-2,-530,1032,13,10,9,12,
869,532,-255,-65,708,755.3237915039062,20.38736343383789,75.69664764404297,-19.73093754539266,-4.936740883923295,27,-417,1210,10,10,9,11,
870,532,-240,-102,743,787.4344482421875,19.337804794311523,66.97117614746094,-17.74536649619446,-7.442699068501075,-19,-119,-1361,11,12,11,10,
871,532,-232,-118,762,805.2279052734375,18.857074737548828,63.03772735595703,-16.74526808441581,-8.426604095134618,37,51,-1073,8,7,8,9,
872,548,-225,-87,731,769.7759399414062,18.261075973510742,68.85690307617188,-16.995275285134905,-6.48942905934004,-77,-18,153,12,10,12,14,
