step,tof,accX,accY,accZ,acc,incl,orient,roll,pitch,gyroX,gyroY,gyroZ,mic0,mic1,mic2,mic3,
0,32,-221,-91,736,773.8333129882812,17.988100051879883,67.61654663085938,-16.594191832615223,-6.753403303559407,-53,-161,129,2,2,2,2,
1,31,-217,-90,744,780.2083129882812,17.521747589111328,67.47061920166016,-16.14867968422609,-6.624032634517511,-23,-144,141,6,7,6,6,
2,31,-220,-89,735,772.3638916015625,17.892356872558594,67.97112274169922,-16.54927445834929,-6.616929158954092,-22,-105,134,6,5,6,6,
3,31,-222,-90,732,770.199951171875,18.118743896484375,67.92879486083984,-16.75242709256021,-6.710501516601026,-22,-112,144,4,4,5,5,
4,31,-221,-91,738,775.7357788085938,17.94247817993164,67.61654663085938,-16.552322300720185,-6.736763978103628,-20,-151,121,3,4,4,4,
5,31,-221,-90,737,774.6676635742188,17.9385986328125,67.83858489990234,-16.575802859534672,-6.671624040165911,-55,-148,141,4,2,3,2,
6,33,-231,-144,737,785.6627807617188,20.26943016052246,58.05796432495117,-17.098738112540698,-10.561145560969234,70,2208,473,11,7,7,7,
7,33,-36,-993,1119,1496.4979248046875,41.603084564208984,2.0710270404815674,-1.3784496724789301,-41.57112040934633,-2189,-1076,1510,24,18,8,8,
8,33,-156,-74,704,724.8641357421875,13.777990341186523,64.61885833740234,-12.428009032327122,-5.859425183629984,-146,885,-1288,69,58,44,33,
9,33,-192,-77,735,763.55615234375,15.716987609863281,68.14385986328125,-14.563627319909292,-5.787769527721524,49,19,677,19,16,12,15,
10,33,-232,-80,703,744.6026000976562,19.241168975830078,70.97117614746094,-18.15420953231796,-6.167755885101858,81,-22,136,8,10,10,8,
11,31,-219,-94,750,786.9542846679688,17.626123428344727,66.7665023803711,-16.158059363843353,-6.8602379670372216,-32,-334,-522,10,9,7,10,
12,31,-227,-52,725,761.4840698242188,17.805583953857422,77.09455871582031,-17.343646252445815,-3.9156445630363788,93,-69,-758,11,6,11,10,
13,31,-230,-110,768,809.2119750976562,18.36237144470215,64.4366226196289,-16.512656448483266,-7.812673571084815,-31,-41,171,10,5,9,10,
14,31,-209,-136,712,754.4010620117188,19.298940658569336,56.943599700927734,-16.08367894479947,-10.385804747810859,21,-179,1048,11,8,8,10,
15,31,-207,-110,727,763.8572998046875,17.8691349029541,62.01029968261719,-15.723365782169637,-8.279720310072353,-6,-325,16,9,8,8,9,
16,32,-195,-94,703,735.5745849609375,17.11296272277832,64.26013946533203,-15.372828019007807,-7.341975813967318,-59,-338,-43,7,6,9,7,
17,32,-196,-90,779,808.3049926757812,15.473196983337402,65.33279418945312,-14.033119033852957,-6.392803223075176,-322,-39,783,11,8,8,9,
18,32,-220,-119,762,802.0006103515625,18.169992446899414,61.58714294433594,-15.921137295541293,-8.532995260690667,-284,73,211,6,12,8,8,
19,32,-202,-125,749,785.7671508789062,17.594463348388672,58.246700286865234,-14.896491433411157,-9.153512230363024,-1,-31,-199,6,5,8,8,
20,30,-253,-116,699,752.3735961914062,21.70926856994629,65.36524963378906,-19.64973089938615,-8.869168198828188,-173,337,-717,10,10,11,9,
21,30,-213,-110,746,783.5719604492188,17.812667846679688,62.683258056640625,-15.773315956775852,-8.06999603926376,-96,254,321,11,11,11,15,
22,30,-210,-146,710,754.662841796875,19.808624267578125,55.18782043457031,-16.15697778241345,-11.155001626763175,-47,-4,1701,12,19,15,16,
23,30,-225,-99,738,777.8624267578125,18.420045852661133,66.24715423583984,-16.81331269728106,-7.311971711784059,117,-97,5,7,10,10,9,
24,30,-224,-66,747,782.6499633789062,17.357707977294922,73.57962799072266,-16.6310175880651,-4.837434206465168,-98,-67,-20,7,9,9,5,
25,27,-260,-81,680,732.5032348632812,21.823015213012695,72.69300842285156,-20.7902105303605,-6.3487346850015305,-99,-56,-824,10,10,7,6,
26,27,-211,-125,715,755.890869140625,18.930004119873047,59.35322570800781,-16.20893318512569,-9.518600655129497,33,-84,-694,9,10,9,7,
27,27,-240,-126,728,776.826904296875,20.420333862304688,62.297054290771484,-17.995912498847535,-9.334516570483776,-26,-189,789,8,9,7,10,
28,27,-229,-90,744,783.6306762695312,18.297632217407227,68.5412368774414,-16.991480649189427,-6.5949747943778885,-49,-137,134,7,11,5,5,
29,27,-224,-98,728,767.9609375,18.56256866455078,66.36727142333984,-16.95865198601143,-7.3315430732097635,-84,-651,-47,7,7,6,8,
30,26,-202,-82,719,751.3248291015625,16.86575698852539,67.9024658203125,-15.596346957904426,-6.265774029357002,-34,-82,123,7,8,8,8,
31,26,-213,-121,723,763.3734130859375,18.71548843383789,60.39663314819336,-16.20200099216484,-9.12024527914259,151,-225,260,8,9,10,9,
32,26,-216,-98,741,778.03662109375,17.747581481933594,65.59265899658203,-16.118322804876687,-7.23608702691194,40,288,502,8,7,11,12,
33,26,-218,-93,739,776.0760498046875,17.77969741821289,66.89330291748047,-16.313945621757338,-6.882500437505199,99,-567,-337,8,12,8,7,
34,26,-221,-79,769,804.0167846679688,16.969810485839844,70.32652282714844,-15.954260100183403,-5.63878971279336,185,-241,-846,8,9,9,8,
35,30,-225,-132,743,787.4630126953125,19.343727111816406,59.59772491455078,-16.6023519099018,-9.64987174843309,155,-248,29,6,8,9,8,
36,30,-221,-123,782,821.8843994140625,17.920677185058594,60.89787673950195,-15.598479264560662,-8.606996387116455,248,123,409,8,10,10,10,
37,30,-230,-87,731,771.2522583007812,18.590553283691406,69.27706146240234,-17.350502515852494,-6.476954127953499,163,-62,421,8,10,8,7,
38,30,-222,-63,722,757.982177734375,17.722820281982422,74.15380096435547,-17.030628387229093,-4.767662256790485,-131,-114,170,7,11,9,7,
39,30,-216,-79,757,791.16748046875,16.897798538208008,69.9072265625,-15.84371136337932,-5.730673055288831,-256,-122,276,7,11,10,10,
40,31,-241,-119,758,804.2424926757812,19.52188491821289,63.7175178527832,-17.437234777746088,-8.509032310334584,-157,-57,-72,5,17,8,8,
41,31,-202,-129,744,781.6527099609375,17.85402488708496,57.433528900146484,-14.976733316742314,-9.499263286541323,173,-99,5,6,8,7,8,
42,31,-183,-100,738,766.8983154296875,15.77676010131836,61.34217834472656,-13.80531583519567,-7.492440777794126,-191,-150,344,6,9,6,8,
43,31,-160,-150,702,735.4617309570312,17.347579956054688,46.84367752075195,-12.565196819723075,-11.768244796122806,-338,202,649,11,12,11,11,
44,31,-231,-119,738,782.410400390625,19.395092010498047,62.741207122802734,-17.17201828001998,-8.748302098485606,26,-276,272,10,15,16,13,
45,35,-194,-108,720,753.4586791992188,17.13673973083496,60.89175796508789,-14.92054383681232,-8.241104985147192,-215,-367,-49,7,9,9,8,
46,35,-235,-84,697,740.3309936523438,19.69788932800293,70.32749938964844,-18.50730616938369,-6.514967386169844,-75,-70,291,6,10,6,9,
47,35,-214,-81,729,764.0667724609375,17.423744201660156,69.26484680175781,-16.264993817116036,-6.085456900774453,-151,71,517,6,9,7,6,
48,35,-209,-127,748,786.9650268554688,18.103191375732422,58.71123504638672,-15.40125472758688,-9.286974385261647,109,-211,521,6,8,5,4,
49,35,-234,-149,702,754.8251342773438,21.560564041137695,57.50934600830078,-18.059566211058083,-11.384766823092127,-281,-331,371,10,13,9,7,
50,39,-228,-90,714,754.9039916992188,18.94554901123047,68.45573425292969,-17.579280281249382,-6.847115392735669,-270,-384,84,11,14,10,10,
51,39,-228,-60,745,781.4147338867188,17.558351516723633,75.25334930419922,-16.964460616173714,-4.403722625897988,-147,-12,279,6,7,6,6,
52,39,-222,-144,771,815.144775390625,18.940502166748047,57.02695846557617,-15.803811733326462,-10.175026149440608,-384,2,-147,6,15,7,6,
53,39,-236,-129,780,825.06787109375,19.02284812927246,61.33503341674805,-16.62084937204611,-8.995145045792924,-128,312,-944,7,11,8,10,
54,39,-214,-114,692,733.2503051757812,19.30791473388672,61.95183181762695,-16.968818893677856,-8.944180393632672,1,-164,1233,9,8,9,9,
55,47,-228,-81,738,776.6524047851562,18.150136947631836,70.43851470947266,-17.071664996222424,-5.98647841486923,28,-257,1033,5,10,7,7,
56,47,-212,-114,762,799.114501953125,17.52860450744629,61.72800064086914,-15.384401873547999,-8.201676948967627,-281,94,49,6,6,6,5,
57,47,-248,-113,765,812.0948486328125,19.6063289642334,65.50047302246094,-17.78121106020544,-7.998450061180072,-201,56,-783,7,10,7,6,
58,47,-215,-97,717,754.7999877929688,18.207326889038086,65.71350860595703,-16.54950465045426,-7.383549563243283,54,-3,-798,7,6,6,7,
59,43,-259,-87,723,772.9029541015625,20.69951820373535,71.4292221069336,-19.578635919946304,-6.463061825054146,120,-46,-21,10,9,9,6,
60,43,-236,-159,675,732.53125,22.85719871520996,56.02705764770508,-18.794242390605294,-12.536152421577718,-7,-295,486,9,11,14,12,
61,43,-206,-100,755,788.9619750976562,16.870223999023438,64.10294342041016,-15.135494827401118,-7.281759197761305,97,-215,611,7,7,8,9,
62,43,-216,-113,752,790.5245361328125,17.958776473999023,62.38029098510742,-15.856937295592447,-8.218184994131475,-171,17,235,9,12,6,4,
63,43,-222,-66,737,772.5341186523438,17.44324493408203,73.43978881835938,-16.700324242995748,-4.9009312656930275,-106,-80,-106,7,9,5,8,
64,45,-216,-165,761,808.0853881835938,19.653409957885742,52.620426177978516,-15.50357393549981,-11.781872427904368,-23,-48,210,8,7,10,9,
65,45,-202,-118,715,752.2984619140625,18.11541175842285,59.70475769042969,-15.575648933609697,-9.0242589539916,-32,-183,-267,10,13,10,8,
66,45,-219,-103,732,770.9695434570312,18.292699813842773,64.8080825805664,-16.502544318249438,-7.677557896586042,-96,-302,293,11,9,7,8,
67,45,-207,-62,723,754.6005859375,16.637853622436523,73.32300567626953,-15.921334846872215,-4.712887218817908,-157,58,202,7,13,9,7,
68,45,-203,-76,755,785.4998168945312,16.016569137573242,69.47163391113281,-14.977171643140041,-5.552263296641775,-87,-128,730,7,9,9,8,
69,46,-234,-159,782,831.6014404296875,19.886791229248047,55.800724029541016,-16.342870396267863,-11.022668647511892,-47,27,1337,7,10,6,7,
70,46,-220,-122,710,753.2489624023438,19.50788116455078,60.98612594604492,-16.98181131766303,-9.320972732718923,-20,-358,-388,10,10,9,7,
71,46,-237,-102,708,753.5496215820312,20.02126693725586,66.7105941772461,-18.33132481261274,-7.7794010861279155,-148,-211,-236,8,7,7,9,
72,46,-197,-72,753,781.6661987304688,15.562764167785645,69.92029571533203,-14.597417882158187,-5.285059189459185,-232,-166,-151,7,6,7,10,
73,46,-179,-145,766,799.8887329101562,16.73554229736328,50.98678970336914,-12.931214092505934,-10.444046010132363,-219,-127,-658,6,6,9,10,
74,44,-234,-115,760,803.4805297851562,18.93335723876953,63.824615478515625,-16.93178447591242,-8.228850119877084,-290,124,406,7,9,7,9,
75,44,-222,-139,743,787.8159790039062,19.416709899902344,57.94463348388672,-16.367168031530436,-10.16230190169397,-75,3,1038,8,7,9,8,
76,44,-237,-105,725,769.9473876953125,19.67203712463379,66.10147857666016,-17.927495170862358,-7.838018548011913,15,27,610,9,11,8,8,
77,44,-213,-123,704,745.7305297851562,19.256298065185547,59.991539001464844,-16.59626932554298,-9.493687344979746,-22,69,271,9,10,11,8,
78,44,-228,-114,729,772.282958984375,19.271276473999023,63.431514739990234,-17.171243963047164,-8.488696112745789,-150,-94,15,7,7,8,8,
79,52,-200,-166,772,814.5796508789062,18.60513687133789,50.303504943847656,-14.212885826172494,-11.758447061678037,-14,124,-1454,6,6,6,9,
80,52,-241,-62,749,789.256591796875,18.376413345336914,75.56977844238281,-17.77925959584072,-4.505508049981162,1,123,-1104,6,6,8,8,
81,52,-240,-103,683,731.23046875,20.924034118652344,66.7692642211914,-19.16040193902786,-8.097524828624843,132,129,1279,9,9,8,12,
82,52,-216,-191,729,783.9502563476562,21.57782554626465,48.51110076904297,-15.993463316795687,-14.10135263103042,56,-114,901,10,9,12,11,
83,52,-201,-88,713,745.9986572265625,17.103153228759766,66.3523178100586,-15.630796472340942,-6.774537507316242,-2,-60,343,6,8,7,7,
84,52,-228,-47,731,767.1727294921875,17.662433624267578,78.34918975830078,-17.28921378923825,-3.5123628714167623,-166,-311,780,7,6,9,10,
85,52,-194,-86,792,819.9365844726562,14.997228622436523,66.08898162841797,-13.686172164667617,-6.02060781890853,-388,24,-256,8,7,9,8,
86,52,-225,-104,708,750.1366577148438,19.293216705322266,65.18919372558594,-17.45432064491972,-7.969237862578733,102,316,-1522,9,11,9,7,
87,52,-184,-106,733,763.138916015625,16.154029846191406,60.0507698059082,-13.95202997082835,-7.984199377927329,71,-451,500,6,8,7,8,
88,52,-217,-81,723,759.1962890625,17.76156997680664,69.52754974365234,-16.608383449428707,-6.124645779017986,-137,-147,1425,6,6,9,7,
89,57,-241,-60,741,781.5126342773438,18.52719497680664,76.01664733886719,-17.961407928801364,-4.403169921673693,-110,-166,201,10,11,7,7,
90,57,-226,-156,779,825.986083984375,19.41645050048828,55.380340576171875,-15.879336942785134,-10.886564163778946,49,30,976,10,7,9,11,
91,57,-217,-196,792,844.2564697265625,20.262468338012695,47.90693664550781,-14.893958749369618,-13.42409312585018,-112,-58,457,10,9,8,11,
92,57,-207,-102,714,750.3659057617188,17.908798217773438,63.76463317871094,-16.013593609475457,-7.812613565293076,33,29,-952,9,7,11,9,
93,57,-273,-96,751,804.82666015625,21.071434020996094,70.62263488769531,-19.82835215833547,-6.85057070532145,2,-93,-330,8,6,8,7,
94,56,-209,-75,749,781.2214965820312,16.510883331298828,70.25615692138672,-15.517326291827905,-5.509080409207157,-18,164,-408,12,7,7,9,
95,56,-239,-149,760,810.5072631835938,20.331695556640625,58.05570983886719,-17.15016590162879,-10.5932467050143,-351,-91,-333,8,9,9,9,
96,56,-233,-170,761,813.8242797851562,20.755064010620117,53.88127517700195,-16.636725916385295,-12.057328685744576,-215,101,1386,9,7,10,9,
97,56,-264,-85,725,776.2383422851562,20.932147979736328,72.14983367919922,-19.88307126842755,-6.28663458792381,69,-63,153,13,7,9,8,
98,66,-234,-88,703,746.1293334960938,19.57425880432129,69.38704681396484,-18.277436774935435,-6.773345376276682,14,17,356,8,8,7,7,
99,66,-219,-139,717,762.4768676757812,19.886436462402344,57.59296417236328,-16.69170343426445,-10.503792504090633,120,-229,187,7,7,8,7,
100,66,-201,-113,733,768.413330078125,17.460329055786133,60.65225601196289,-15.163714600292385,-8.45637189159149,-100,-260,-323,10,11,7,10,
101,66,-243,-83,759,801.2608642578125,18.689538955688477,71.13848114013672,-17.6542342026467,-5.945748527561059,-107,-306,-216,8,4,7,8,
102,66,-226,-106,743,783.8118286132812,18.568559646606445,64.86878204345703,-16.758271601371558,-7.772297979285905,-71,51,-420,8,8,10,13,
103,66,-216,-133,765,805.9590454101562,18.34267234802246,58.374114990234375,-15.54550916865257,-9.498442193951341,18,183,934,9,8,11,9,
104,66,-213,-138,773,813.5982055664062,18.17430877685547,57.057682037353516,-15.1768943453418,-9.765545475057348,-119,-41,1273,10,6,7,9,
105,66,-231,-66,699,739.13330078125,18.96554946899414,74.05148315429688,-18.211658422154326,-5.122979760970079,-95,-311,-62,9,8,11,11,
106,66,-184,-88,702,731.0294189453125,16.198646545410156,64.4366226196289,-14.578123930775721,-6.913929702190543,-501,-385,-821,8,9,13,10,
107,66,-225,-111,786,825.0709228515625,17.70090103149414,63.737911224365234,-15.825224324917414,-7.7316679820757255,-341,159,136,6,5,9,10,
108,75,-205,-174,779,824.1007080078125,19.041112899780273,49.672210693359375,-14.403910944643274,-12.189122959338102,-140,-290,-802,9,6,10,8,
109,75,-190,-95,693,724.826904296875,17.03980827331543,63.431514739990234,-15.196579069014685,-7.531184006832344,-145,-56,342,8,7,7,9,
110,75,-230,-63,719,757.5156860351562,18.347126007080078,74.67855834960938,-17.675404377781057,-4.770605206675942,-137,-281,1004,8,6,9,8,
111,75,-232,-111,754,796.6561279296875,18.832225799560547,64.42788696289062,-16.930844361562148,-8.0092161303381,-21,-133,440,15,13,10,11,
112,75,-231,-176,768,821.0730590820312,20.711355209350586,52.69229507446289,-16.340145486224493,-12.377609339107636,-250,-175,377,9,9,10,9,
113,70,-219,-120,735,776.26416015625,18.763479232788086,61.27616882324219,-16.38680173581879,-8.892818767444988,-166,-41,-370,7,8,10,11,
114,70,-282,-97,727,785.7874755859375,22.301504135131836,71.01502227783203,-21.031161818431617,-7.090852321815517,221,263,-490,7,7,12,9,
115,70,-267,-96,689,745.1348876953125,22.380142211914062,70.2206802368164,-20.997326362984275,-7.402319017146895,128,-129,200,8,6,10,10,
116,70,-243,-121,708,758.2572021484375,20.975624084472656,63.525909423828125,-18.691455458844388,-9.182313177904536,144,-133,-311,7,5,9,7,
117,70,-228,-92,705,746.6411743164062,19.223621368408203,68.02218627929688,-17.780279784279088,-7.077887867266392,-64,-255,-278,8,4,7,6,
118,78,-218,-87,735,771.5685424804688,17.70851707458496,68.2406234741211,-16.411938001711896,-6.474287545614564,-287,266,889,12,9,13,9,
119,78,-253,-93,726,774.4249267578125,20.367055892944336,69.81388092041016,-19.068238353423094,-6.897245190789185,-102,-85,245,10,11,11,14,
120,78,-216,-104,708,747.4864501953125,18.704313278198242,64.28662109375,-16.796208531885753,-7.997677263828795,287,-286,-72,8,8,7,11,
121,78,-227,-100,735,775.72802734375,18.646583557128906,66.2217788696289,-17.015375823212405,-7.406676798240657,-15,-353,-228,6,8,6,6,
122,78,-229,-66,723,761.2660522460938,18.241561889648438,73.91938018798828,-17.506540982384834,-4.973655180040806,-2,-187,-389,6,6,6,6,
123,78,-213,-108,759,795.6846313476562,17.46379852294922,63.10961151123047,-15.527092660017548,-7.8009599343117815,-11,59,180,5,5,7,6,
124,78,-215,-215,828,882.0623779296875,20.16204833984375,44.99601745605469,-14.107793860520706,-14.107793860520706,-23,-705,80,11,7,8,7,
125,78,-238,-137,819,863.8136596679688,18.534421920776367,60.070430755615234,-15.993147753992032,-9.125587933243983,-55,-207,485,15,9,10,14,
126,78,-196,-75,718,748.040771484375,16.290590286254883,69.05722045898438,-15.189825166640944,-5.754252860970018,-169,-30,607,7,6,7,10,
127,78,-234,-87,730,771.5082397460938,18.87787437438965,69.60186767578125,-17.656037350205054,-6.474795472241454,74,269,14,9,7,10,11,
128,86,-201,-138,765,802.9134521484375,17.675485610961914,55.52410888671875,-14.497532902994605,-9.89679923456063,-215,-290,-339,7,5,7,8,
129,86,-222,-141,803,844.9698486328125,18.132139205932617,57.5753288269043,-15.232188358426413,-9.605875980215705,-113,85,-618,10,7,8,11,
130,86,-182,-111,720,750.8961181640625,16.4908504486084,58.6178092956543,-14.02687920681339,-8.500808926283549,-143,-80,-46,9,5,7,9,
131,86,-222,-87,723,761.3028564453125,18.249956130981445,68.59690856933594,-16.954092152596832,-6.561970466672843,-301,110,280,9,7,8,8,
132,86,-238,-176,739,796.0784912109375,21.826580047607422,53.51350021362305,-17.39547843559559,-12.77269310652702,28,-237,367,10,11,11,9,
133,85,-237,-114,750,794.7735595703125,19.32146644592285,64.30845642089844,-17.34941170203618,-8.24678458530104,-132,-159,515,12,9,7,9,
134,85,-207,-71,715,747.7399291992188,17.015464782714844,71.06507110595703,-16.07135158915078,-5.448603183419222,-69,-246,-57,7,8,5,6,
135,85,-233,-96,774,813.9907836914062,18.032299041748047,67.60417938232422,-16.633224368821775,-6.773082029077923,73,-205,-220,12,7,8,10,
136,85,-198,-158,787,826.762939453125,17.839832305908203,51.407047271728516,-13.856337327382802,-11.017381088470417,-388,-89,-163,7,8,9,8,
137,85,-231,-199,792,848.6613159179688,21.053203582763672,49.25217056274414,-15.794828407436306,-13.561382204256775,120,-273,773,12,6,6,10,
138,87,-213,-120,772,809.7857666015625,17.569820404052734,60.600425720214844,-15.25007805783434,-8.521894855532784,40,-32,-119,7,7,7,8,
139,87,-202,-69,747,776.9002685546875,15.945409774780273,71.13743591308594,-15.070515416422552,-5.095409276822748,-55,-91,-495,6,8,7,8,
140,87,-241,-171,705,764.4259033203125,22.73916244506836,54.63894271850586,-18.37706978987348,-12.926285295055049,36,-261,-223,5,8,6,6,
141,87,-236,-163,762,814.1922607421875,20.624418258666992,55.36433029174805,-16.849445055330083,-11.548562361393012,84,-286,585,13,7,9,8,
142,87,-224,-89,712,751.6920776367188,18.70038604736328,68.32772064208984,-17.33717919825199,-6.799744646534626,124,-367,35,10,7,9,12,
143,90,-218,-63,714,749.1922607421875,17.628957748413086,73.87806701660156,-16.916639850151967,-4.8237309982781555,-42,-122,793,8,5,7,11,
144,90,-219,-93,765,801.1460571289062,17.274473190307617,66.98780059814453,-15.864209121411339,-6.666135272072618,-41,251,233,7,6,6,6,
145,90,-222,-150,748,794.5363159179688,19.704891204833984,55.95040512084961,-16.224889720412932,-10.882140502543923,-98,-316,-135,6,6,8,5,
146,90,-213,-113,727,765.94189453125,18.34660530090332,62.049835205078125,-16.14618190421729,-8.483858157483965,-99,-83,-880,7,5,7,6,
147,90,-255,-78,679,729.4861450195312,21.4393310546875,72.98889923095703,-20.460474841179618,-6.138061442650838,37,13,529,23,12,15,16,
148,97,-234,-141,733,782.2570190429688,20.438966751098633,58.924766540527344,-17.405622477018294,-10.38418621238964,169,-529,304,8,6,7,12,
149,97,-240,-85,680,726.1026000976562,20.524995803833008,70.49432373046875,-19.30105653763507,-6.722649957894069,398,133,-22,8,8,9,9,
150,97,-251,-63,729,773.5703125,19.542129516601562,75.90699005126953,-18.933440531071867,-4.671374123524541,-274,-32,161,6,6,6,7,
151,97,-188,-96,725,755.10595703125,16.23137092590332,62.945953369140625,-14.41667004146486,-7.3040358655722475,15,85,-149,8,6,9,7,
152,97,-249,-173,767,824.75390625,21.567163467407227,55.20555114746094,-17.572252610133557,-12.108261105222782,538,64,-434,10,10,9,9,
153,99,-228,-147,814,858.0145874023438,18.429479598999023,57.18501281738281,-15.410319382550162,-9.864910618342709,-225,125,875,9,10,8,10,
154,99,-225,-110,776,815.4146118164062,17.88506317138672,63.943084716796875,-16.017637060798233,-7.75287769194922,-274,-273,-1121,7,7,8,7,
155,99,-231,-119,734,778.6385498046875,19.492847442626953,62.741207122802734,-17.25780508506109,-8.791014846880802,-76,-213,-130,6,5,6,5,
156,99,-233,-114,710,755.900146484375,20.067359924316406,63.92543411254883,-17.953303874007315,-8.674077329420596,-94,-261,729,5,6,8,8,
157,99,-228,-135,720,767.2085571289062,20.202245712280273,59.36644744873047,-17.288380570086154,-10.134679132977295,-47,-340,45,8,8,6,7,
158,103,-243,-98,756,800.1181030273438,19.113386154174805,68.0328598022461,-17.68028014606734,-7.035362751657627,-134,-40,492,9,7,8,8,
159,103,-250,-89,724,771.1011352539062,20.127466201782227,70.40103912353516,-18.91782149212058,-6.627813490281645,39,41,-327,7,7,6,4,
160,103,-236,-118,701,749.0133666992188,20.6242618560791,63.431514739990234,-18.365713780232195,-9.064171584827331,191,-130,419,8,10,5,7,
161,103,-183,-120,732,764.0111083984375,16.642169952392578,56.74199295043945,-13.858525346499583,-9.036624168106068,-345,126,-1477,9,6,7,8,
162,103,-193,-81,780,807.59521484375,15.01889419555664,67.22940826416016,-13.826412733922341,-5.756317850441602,-676,-137,-869,6,8,9,7,
163,103,-237,-104,723,767.9284057617188,19.693927764892578,66.30389404296875,-17.97623734078221,-7.783444708542596,21,-263,684,6,8,9,8,
164,103,-260,-94,726,776.8603515625,20.845470428466797,70.11988830566406,-19.553109737158014,-6.94981133668167,209,241,1375,6,8,10,10,
165,103,-222,-143,739,784.763671875,19.661476135253906,57.20899963378906,-16.432628568330387,-10.49912249213715,53,-288,88,7,6,8,14,
166,103,-243,-122,765,811.8854370117188,19.5648136138916,63.3372802734375,-17.415762716696264,-8.642429005950513,3,268,140,8,6,7,7,
167,108,-241,-167,760,814.5980834960938,21.094478607177734,55.276451110839844,-17.208599780096137,-11.830030660404752,-10,-74,-139,8,5,6,9,
168,108,-227,-102,735,775.9884033203125,18.703466415405273,65.80038452148438,-17.009493007016893,-7.553116548257881,36,-134,-927,6,10,8,7,
169,108,-216,-90,746,781.8388671875,17.413082122802734,67.37681579589844,-16.037817296476714,-6.610156295960488,-114,-188,25,4,7,6,9,
170,108,-236,-153,763,813.1875610351562,20.232770919799805,57.04082107543945,-16.87088515694089,-10.84475111058195,-151,-44,259,5,7,7,9,
171,108,-252,-162,786,841.1563720703125,20.862041473388672,57.26115798950195,-17.43283431531021,-11.104090315888794,-194,146,801,8,6,8,13,
172,113,-214,-87,697,734.28466796875,18.334775924682617,67.87288665771484,-16.944192204692392,-6.804540445489367,-159,-37,957,8,8,10,12,
173,113,-242,-103,704,751.5244750976562,20.483152389526367,66.94110107421875,-18.784654585001263,-7.877453288059885,48,15,586,7,7,9,11,
174,113,-210,-124,699,740.3222045898438,19.231496810913086,59.43560028076172,-16.47878288735935,-9.642183571464967,45,-301,-259,8,6,8,8,
175,113,-222,-94,720,759.2891235351562,18.510221481323242,67.04773712158203,-17.000421319931128,-7.111462910622048,-17,-286,-1085,8,9,6,6,
176,113,-232,-97,714,756.98681640625,19.3995304107666,67.30670166015625,-17.84712215332204,-7.3621013007366365,-5,-325,-528,8,6,5,10,
177,112,-237,-108,717,762.838134765625,19.9613037109375,65.498046875,-18.100329979054013,-8.139085475984633,67,-330,420,7,6,7,7,
178,112,-212,-126,726,766.7437744140625,18.76016616821289,59.271751403808594,-16.051062694284738,-9.458390573201278,-26,-79,956,5,6,8,8,
179,112,-210,-107,723,760.4459228515625,18.053152084350586,62.99662399291992,-16.030782477796578,-8.088754449479236,-2,-174,767,7,7,6,7,
180,112,-222,-93,717,756.3213500976562,18.554494857788086,67.2669448852539,-17.06917221127563,-7.063171624033048,-18,-295,351,8,8,9,8,
181,112,-219,-78,746,781.384033203125,17.306446075439453,70.3926773071289,-16.27643426139035,-5.728970912110464,-137,122,-174,5,9,6,4,
182,121,-213,-120,729,768.9017944335938,18.537256240844727,60.600425720214844,-16.082337658677744,-8.978668941816187,108,-129,-920,6,9,5,5,
183,121,-212,-108,723,761.1419067382812,18.21318817138672,63.000709533691406,-16.172423090917405,-8.157346967228145,71,35,-161,6,7,6,7,
184,121,-217,-102,749,786.4439086914062,17.749267578125,64.8209228515625,-16.01718119368933,-7.452126529683219,31,-643,-49,5,4,7,8,
185,121,-219,-108,726,765.964111328125,18.587705612182617,63.7463264465332,-16.613501487684093,-8.105645195944248,-15,-444,498,5,6,9,13,
186,124,-228,-84,738,776.9710693359375,18.221656799316406,69.77188873291016,-17.064449817377312,-6.206499970433787,21,-52,754,5,8,4,5,
187,124,-233,-121,738,783.3096313476562,19.581056594848633,62.55308532714844,-17.30485669955996,-8.886219143845238,10,487,767,6,6,6,5,
188,124,-246,-117,733,781.9808349609375,20.38460350036621,64.56038665771484,-18.335806006384217,-8.60490787402022,26,138,-480,5,8,6,5,
189,124,-221,-90,738,775.6190795898438,17.91584014892578,67.83858489990234,-16.554883855190834,-6.663402968100901,6,-255,-453,6,7,5,6,
190,124,-213,-123,719,759.9072265625,18.883256912231445,59.991539001464844,-16.277953605028994,-9.314981944243867,-34,-611,-610,5,12,7,9,
191,125,-221,-120,750,791.0379028320312,18.534374237060547,61.49515151977539,-16.223191412006962,-8.725423692350766,-46,-358,44,4,12,6,8,
192,125,-211,-139,729,771.5458374023438,19.11410903930664,56.62075424194336,-15.871270403057851,-10.378951107695237,-69,-279,298,7,7,11,12,
193,125,-213,-90,707,743.8534545898438,18.10889434814453,67.09090423583984,-16.63936499856301,-6.949332310682576,-101,-104,1130,11,9,8,14,
194,125,-216,-82,708,744.7442626953125,18.070898056030273,69.20848846435547,-16.859898777708057,-6.321363299155479,-24,38,1258,8,5,8,8,
195,125,-227,-126,680,727.8770751953125,20.894874572753906,60.96331024169922,-18.171711730428772,-9.968467038317542,-23,-105,-52,15,9,10,9,
196,127,-219,-88,714,751.9979858398438,18.289648056030273,68.10513305664062,-16.93125991448028,-6.720240867848991,-90,-264,-807,7,14,10,9,
197,127,-231,-66,753,790.3961181640625,17.69308090209961,74.05148315429688,-16.993219157352268,-4.789914601694935,18,-207,57,8,10,6,7,
198,127,-212,-75,714,748.5753173828125,17.479774475097656,70.51433563232422,-16.45156095253331,-5.750130034695892,-127,-211,-241,8,10,8,8,
199,127,-220,-125,716,759.3951416015625,19.46112823486328,60.39201736450195,-16.840250452548972,-9.47427058387907,-97,-153,889,7,7,6,8,
200,127,-230,-118,707,752.77685546875,20.08207893371582,62.83675003051758,-17.790379435820267,-9.018476286642583,20,-178,-148,12,10,8,9,
201,131,-215,-77,699,735.3604736328125,18.090774536132812,70.29230499267578,-17.000114875584146,-6.01049054310996,-60,-82,1330,18,10,12,10,
202,131,-230,-64,728,766.1461791992188,18.154125213623047,74.44708251953125,-17.4698441809951,-4.791785211481718,-5,-508,394,7,9,9,7,
203,131,-233,-96,710,753.3956298828125,19.539342880249023,67.60417938232422,-18.0150291715849,-7.320707699061714,-38,-254,171,9,13,8,7,
204,131,-231,-139,741,788.5194702148438,19.99070167541504,58.959781646728516,-17.0348951933231,-10.153138765269956,-62,408,-1057,11,8,8,11,
205,131,-210,-82,697,732.5523681640625,17.92146110534668,68.66725158691406,-16.658633675097263,-6.427009513637477,77,-65,308,12,12,8,7,
206,136,-235,-75,691,733.71044921875,19.64381980895996,72.29639434814453,-18.680454302522975,-5.867031724751183,-3,-829,1411,10,8,10,14,
207,136,-236,-60,757,795.2012329101562,17.829538345336914,75.73241424560547,-17.26431815288692,-4.327228025688384,155,-229,1020,8,8,7,8,
208,136,-223,-135,768,811.03515625,18.746490478515625,58.8065071105957,-15.959467144373415,-9.581707598467311,81,-193,68,7,5,7,8,
209,136,-245,-138,775,824.435546875,19.940149307250977,60.60542678833008,-17.28788653926603,-9.635942715672758,-7,207,155,7,12,10,7,
210,136,-208,-97,750,784.3296508789062,17.012371063232422,64.99479675292969,-15.378517201214928,-7.104100159547857,5,447,-1085,6,11,6,5,
211,138,-223,-73,721,758.220947265625,18.02499008178711,71.8707275390625,-17.104148147389825,-5.524881321924337,18,-484,-45,8,8,6,6,
212,138,-243,-122,687,738.851806640625,21.591033935546875,63.3372802734375,-19.20133700885658,-9.504267602624868,89,-270,-1094,9,9,6,7,
213,138,-240,-145,753,803.5135498046875,20.422225952148438,58.85744857788086,-17.37882956504211,-10.39640584937746,6,583,834,6,12,6,5,
214,138,-186,-167,737,778.2377319335938,18.73341178894043,48.07704162597656,-13.827616323637377,-12.391320899283718,-126,-118,79,7,13,8,7,
215,138,-214,-77,734,768.4276123046875,17.213546752929688,70.2073745727539,-16.170149915925755,-5.7509537346431525,-59,-139,336,8,8,14,14,
216,142,-227,-105,716,758.426025390625,19.25287628173828,65.1734848022461,-17.415809623246506,-7.957853129063553,11,-81,479,9,6,8,9,
217,142,-234,-105,727,770.9150390625,19.430233001708984,65.83000183105469,-17.670071335801406,-7.82811867999224,39,-161,-315,8,8,8,7,
218,142,-230,-80,716,756.2777099609375,18.781373977661133,70.8177719116211,-17.70529387238731,-6.072179320771935,49,-53,-864,6,7,5,5,
219,142,-217,-89,753,788.6818237304688,17.2984619140625,67.69628143310547,-15.970515072556775,-6.4794313091564,37,-109,-693,6,8,6,7,
220,142,-224,-156,774,820.7240600585938,19.424283981323242,55.141849517822266,-15.838677577267799,-10.957223170451334,-134,-68,437,10,7,7,8,
221,144,-222,-115,723,765.0084838867188,19.073619842529297,62.611568450927734,-16.86950234007649,-8.645768651570322,-1,-225,1256,8,9,8,8,
222,144,-228,-78,705,745.045654296875,18.86862564086914,71.11070251464844,-17.819631704521676,-6.009397088145731,52,-338,432,7,6,7,6,
223,144,-219,-87,745,781.3801879882812,17.55034637451172,68.33074951171875,-16.27651645960219,-6.392649814039452,8,-171,-10,7,10,7,7,
224,144,-216,-113,757,795.2823486328125,17.847694396972656,62.38029098510742,-15.759596929407463,-8.168682261107513,-108,-219,-22,8,8,7,6,
225,144,-232,-118,732,776.8989868164062,19.572284698486328,63.03772735595703,-17.37492385961111,-8.736233193392884,28,-49,-370,7,8,6,8,
226,151,-226,-129,741,785.3648681640625,19.348207473754883,60.278907775878906,-16.724157002706157,-9.453950593008281,-38,-179,-423,6,5,5,5,
227,151,-217,-75,708,744.2969970703125,17.965087890625,70.93050384521484,-16.95079232189826,-5.783295021906513,-96,-68,-29,6,6,6,6,
228,151,-204,-118,720,757.5882568359375,18.12210464477539,59.95002365112305,-15.621162380129253,-8.960727088903717,-94,-391,1275,7,6,8,12,
229,151,-210,-98,745,780.2108764648438,17.27678871154785,64.97972106933594,-15.61416932216818,-7.215814558066221,-61,-94,1057,6,4,7,8,
230,151,-228,-121,724,768.6358032226562,19.61992835998535,62.04155731201172,-17.2552708335902,-9.057277416903165,-39,-604,324,6,7,8,7,
231,152,-234,-66,729,768.4744873046875,18.442005157470703,74.24571228027344,-17.728048149441328,-4.926885624379883,70,-21,-620,8,5,6,4,
232,152,-228,-102,760,799.9924926757812,18.191118240356445,65.89440155029297,-16.559008299567402,-7.325219702723822,36,-67,-557,9,4,5,6,
233,152,-230,-168,773,823.803955078125,20.224977493286133,53.85057830810547,-16.212024248470502,-11.766986948880135,0,-152,265,8,6,7,7,
234,152,-237,-131,722,771.1121826171875,20.557138442993164,61.06519317626953,-17.899497715641836,-9.78110312571684,17,-222,129,7,5,6,10,
235,155,-210,-74,735,767.9850463867188,16.8512020111084,70.58528900146484,-15.86923855942972,-5.529373579783526,7,-100,-95,6,6,7,7,
236,155,-226,-117,720,763.6524047851562,19.464277267456055,62.625980377197266,-17.214282116116937,-8.813058702606131,28,-90,729,8,5,6,6,
237,155,-216,-78,715,750.9760131835938,17.804443359375,70.14154815673828,-16.71586287498792,-5.961768673628816,77,-56,1010,6,6,5,8,
238,155,-199,-168,774,816.6400756835938,18.59473991394043,49.82439041137695,-14.10392232192344,-11.871708138451652,-51,-1,28,8,7,10,10,
239,155,-206,-108,723,759.4926147460938,17.83121109008789,62.32977294921875,-15.73769344849212,-8.17518250114824,29,-141,-366,5,7,7,8,
240,159,-235,-84,720,762.0242919921875,19.11490821838379,70.32749938964844,-17.962178451105462,-6.328730357000422,68,-200,-786,5,5,5,7,
241,159,-216,-126,716,758.4114990234375,19.249740600585938,59.74001693725586,-16.547241195343133,-9.563275307311965,-68,-274,337,8,7,6,9,
242,159,-204,-100,733,767.4014892578125,17.21854591369629,63.882659912109375,-15.41640669981183,-7.487500051979211,-87,-318,549,7,5,7,9,
243,159,-228,-76,719,758.1035766601562,18.48061752319336,71.56185150146484,-17.502683621625625,-5.753575775741787,23,-258,524,10,8,8,6,
244,159,-213,-87,733,768.2623291015625,17.424495697021484,67.77909088134766,-16.096087824155124,-6.502269531300624,-23,-17,186,7,7,5,5,
245,160,-244,-138,753,803.4855346679688,20.4168701171875,60.5051155090332,-17.67858107775416,-9.889681797248207,-56,-217,-47,7,8,6,6,
246,160,-200,-103,723,757.1908569335938,17.281597137451172,62.74806594848633,-15.315512994098293,-7.8181326162439495,2,-303,319,6,8,9,8,
247,160,-229,-82,693,734.4481201171875,19.338665008544922,70.29541015625,-18.167665243152264,-6.410350919114519,32,-230,281,8,7,10,10,
248,160,-217,-43,735,767.5695190429688,16.748512268066406,78.7886734008789,-16.422045078502094,-3.2114471458416984,148,93,429,6,6,5,5,
249,160,-215,-114,776,813.26318359375,17.409284591674805,62.062538146972656,-15.329347099459781,-8.058032190070435,-156,207,330,7,8,6,5,
250,164,-207,-201,813,862.6812744140625,19.537511825561523,45.838558197021484,-13.883563727176861,-13.473435203393839,-14,76,85,8,9,9,9,
251,164,-216,-81,714,750.3419189453125,17.903135299682617,69.4406967163086,-16.730404836188406,-6.197200775976694,70,-85,943,8,9,8,7,
252,164,-210,-78,717,751.1810913085938,17.348630905151367,69.62030792236328,-16.233931601834097,-5.960135484315229,-128,-136,547,7,9,9,9,
253,164,-203,-77,769,799.0613403320312,15.763851165771484,69.22447967529297,-14.717187102840748,-5.5297777752766,-43,114,-72,11,6,8,7,
254,164,-228,-147,777,822.9957275390625,19.243955612182617,57.18501281738281,-16.08342315012085,-10.289141348987535,-8,119,-44,9,12,8,7,
255,164,-225,-189,779,832.5785522460938,20.664949417114258,49.965904235839844,-15.678833182343542,-13.120843618401501,-108,99,516,8,11,10,10,
256,164,-225,-112,721,763.5509033203125,19.216032028198242,63.53346633911133,-17.13809976966621,-8.434754797072515,-130,-128,27,7,13,6,7,
257,164,-224,-83,715,753.85009765625,18.472455978393555,69.66527557373047,-17.28598329320866,-6.32116443300233,-29,-40,-571,7,9,7,5,
258,164,-224,-115,763,803.4736938476562,18.261150360107422,62.82090377807617,-16.187969091467846,-8.228920712153803,-90,-70,-107,7,6,7,6,
259,164,-242,-159,748,802.0903930664062,21.160003662109375,56.690452575683594,-17.560436617946028,-11.43359145597044,-115,-23,-165,6,10,6,5,
260,171,-241,-121,697,747.3493041992188,21.149484634399414,63.336490631103516,-18.812549500185682,-9.3175183353172,67,9,855,11,7,10,10,
261,171,-211,-90,732,767.1016845703125,17.397701263427734,66.8964614868164,-15.965668239486988,-6.7377302743682765,-76,-247,1124,7,8,7,7,
262,171,-198,-116,728,763.3112182617188,17.493572235107422,59.632179260253906,-15.034235737158847,-8.741077536152778,-177,-111,329,6,7,6,7,
263,171,-195,-99,734,765.8864135742188,16.5889892578125,63.079994201660156,-14.750296033979078,-7.426947478978095,-131,-359,-566,11,10,6,6,
264,171,-225,-88,705,745.2476196289062,18.913999557495117,68.63569641113281,-17.572543335557526,-6.781396830627918,17,-326,-878,10,7,7,6,
265,174,-193,-86,733,762.8460083007812,16.077905654907227,65.97908782958984,-14.655105320768604,-6.473042642004809,-152,-209,578,12,11,8,9,
266,174,-227,-86,714,754.1359252929688,18.774829864501953,69.247314453125,-17.518080478687587,-6.548129774011474,192,-100,114,14,10,12,12,
267,174,-232,-100,726,768.7001953125,19.184831619262695,66.67894744873047,-17.56623833180123,-7.474777372252618,48,-96,61,6,8,8,6,
268,174,-242,-106,744,789.5162963867188,19.548044204711914,66.34243774414062,-17.84944059399023,-7.715797814205615,77,-333,153,7,5,6,8,
269,174,-250,-87,735,781.213134765625,19.804088592529297,70.80888366699219,-18.663837510587506,-6.394022318736382,-86,-260,508,5,7,5,5,
270,176,-213,-111,756,793.2376708984375,17.623342514038086,62.471309661865234,-15.576203776195342,-8.043960017770733,-99,-296,583,7,9,7,7,
271,176,-245,-126,774,821.56982421875,19.590850830078125,62.78044128417969,-17.35009829208631,-8.82197979640021,94,-34,481,6,12,6,6,
272,176,-256,-143,747,802.4923706054688,21.430274963378906,60.809024810791016,-18.602831657311448,-10.264632034014832,77,-156,-888,9,14,10,11,
273,176,-200,-69,744,773.49658203125,15.871736526489258,70.96235656738281,-14.984996526680174,-5.117890478605631,-54,-23,-610,6,11,6,5,
274,177,-234,-144,729,779.0590209960938,20.649240493774414,58.38890838623047,-17.47936750456746,-10.651708825945333,68,-183,-184,12,7,10,8,
275,177,-250,-122,756,805.5557250976562,20.199676513671875,63.98420333862305,-18.08000906580033,-8.710863922089008,310,-208,1387,7,7,7,8,
276,177,-222,-113,748,788.3888549804688,18.417055130004883,63.020050048828125,-16.354940525148553,-8.240601590137466,-11,-14,1322,6,7,5,6,
277,177,-215,-152,735,780.7393798828125,19.70731544494629,54.73687744140625,-15.984659879990806,-11.226453786457208,-33,74,-507,10,8,7,6,
278,177,-210,-138,720,762.59033203125,19.237234115600586,56.685726165771484,-15.984495030995424,-10.425808525884785,44,-151,-838,11,12,6,6,
279,182,-232,-138,711,760.5189208984375,20.78789710998535,59.251094818115234,-17.761465464070767,-10.454524185830214,-45,-76,-354,9,8,8,9,
280,182,-198,-94,734,766.026123046875,16.624021530151367,64.6006851196289,-14.97970177335899,-7.048600875808103,-132,-177,106,6,8,6,9,
281,182,-189,-99,719,749.9886474609375,16.525766372680664,62.350563049316406,-14.59611896392516,-7.5852952853581,-159,-453,410,9,11,8,9,
282,182,-211,-87,720,755.307861328125,17.585918426513672,67.58924102783203,-16.221789191169158,-6.614285088787771,9,106,1145,11,13,8,7,
283,182,-207,-109,717,754.200927734375,18.068471908569336,62.22657775878906,-15.929995910309165,-8.309705995901059,-207,-30,895,8,13,7,9,
284,190,-209,-108,729,766.0195922851562,17.88325309753418,62.66905212402344,-15.83327267561724,-8.105054147485728,-207,-215,35,8,9,8,6,
285,190,-205,-87,725,758.4319458007812,17.07315444946289,67.00077819824219,-15.681793581405392,-6.586919322259758,72,-296,-635,6,6,6,5,
286,190,-228,-65,736,773.2431640625,17.852947235107422,74.08467864990234,-17.14926033432816,-4.822061062335513,-30,-58,-732,9,7,7,6,
287,190,-186,-114,761,791.652099609375,15.993829727172852,58.492156982421875,-13.588775697367153,-8.2795294262674,-287,130,-677,6,8,8,11,
288,190,-219,-191,813,863.3718872070312,19.666244506835938,48.90294647216797,-14.693998675019023,-12.781031174028952,55,-130,984,10,11,10,12,
289,189,-235,-111,737,781.4825439453125,19.422637939453125,64.71333312988281,-17.500281390893104,-8.165777389060592,-99,-85,1328,9,9,8,7,
290,189,-242,-80,727,770.3849487304688,19.318174362182617,71.70403289794922,-18.30821997892554,-5.960579265458394,-53,-186,667,7,4,7,6,
291,189,-213,-95,757,792.1129760742188,17.1214656829834,65.95932006835938,-15.598882145624128,-6.888200276257782,-140,-128,-593,9,7,7,10,
292,189,-187,-159,771,809.1297607421875,17.657474517822266,49.622718811035156,-13.362577665126631,-11.332795950899959,-176,-247,-1203,10,8,9,6,
293,189,-285,-114,764,823.357177734375,21.88690757751465,68.19529724121094,-20.25163518403343,-7.95860014896055,-190,24,201,7,6,7,6,
294,191,-228,-127,725,770.5439453125,19.795734405517578,60.87790298461914,-17.211204980267492,-9.486698447866374,-55,121,77,9,9,11,11,
295,191,-229,-102,740,781.309814453125,18.71268081665039,65.98773956298828,-17.04349410370576,-7.501376295171506,-36,-65,357,7,9,7,8,
296,191,-238,-137,696,748.2172241210938,21.530223846435547,60.070430755615234,-18.547422019210604,-10.550489608092024,27,-266,569,9,12,9,7,
297,191,-219,-96,702,741.6070556640625,18.807903289794922,66.32611083984375,-17.175805844411876,-7.437730742879658,-89,-217,1552,12,8,10,10,
298,191,-214,-157,746,791.8087158203125,19.582660675048828,53.730831146240234,-15.68017363596964,-11.436408890586462,-193,127,-81,6,8,10,10,
299,196,-234,-99,739,781.4588623046875,18.971736907958984,67.06456756591797,-17.423967448116606,-7.278137893778991,3,1,-440,9,7,10,9,
300,196,-231,-100,703,746.7061157226562,19.698333740234375,66.58885192871094,-18.02058474115586,-7.696260016149953,55,-147,-712,10,8,8,10,
301,196,-223,-115,675,720.124267578125,20.388702392578125,62.71660614013672,-18.039269786085097,-9.189173290372414,46,-300,-1237,10,7,10,10,
302,196,-183,-149,742,778.6231689453125,17.64072608947754,50.84344482421875,-13.59340650949209,-11.032363450946011,-60,-289,969,11,8,7,8,
303,196,-218,-89,774,809.0247192382812,16.918739318847656,67.78861236572266,-15.632150841907556,-6.315834338118689,-131,-417,691,10,8,12,12,
304,197,-225,-126,750,793.0958251953125,18.972774505615234,60.74766159057617,-16.48105998090637,-9.141376372589626,6,-247,544,6,6,7,8,
305,197,-220,-122,774,813.8550415039062,18.002914428710938,60.98612594604492,-15.683215263306943,-8.621354466690796,-131,-71,661,12,8,9,8,
306,197,-179,-87,702,729.6670532226562,15.82626724243164,64.07527923583984,-14.200589994678714,-6.847807982045115,-87,-285,-704,12,9,10,12,
307,197,-197,-75,738,767.51416015625,15.938660621643066,69.15437316894531,-14.872728206111807,-5.60778162689646,-83,-118,-765,8,10,8,9,
308,197,-217,-122,759,798.7828369140625,18.156810760498047,60.65127182006836,-15.76326853383613,-8.7853052006037,-211,-38,197,14,7,9,11,
309,201,-207,-176,792,837.310546875,18.93320655822754,49.62357711791992,-14.313072488447114,-12.133885221364038,-133,183,609,8,8,12,15,
310,201,-207,-150,805,844.6146850585938,17.615549087524414,54.067787170410156,-14.18668943946867,-10.229751492078439,-117,38,882,13,9,17,11,
311,201,-249,-72,696,742.698486328125,20.424020767211914,73.86929321289062,-19.58858786291796,-5.563206999615035,-3,95,436,12,7,12,11,
312,201,-233,-100,736,778.4503784179688,19.006790161132812,66.76840209960938,-17.41632033109127,-7.380630235144606,120,127,-96,8,7,10,9,
313,203,-217,-124,731,772.545166015625,18.873537063598633,60.251583099365234,-16.313313974788223,-9.23640792121959,-9,-284,-526,8,7,8,7,
314,203,-218,-113,764,802.4892578125,17.815052032470703,62.59663391113281,-15.7627565940062,-8.094827492531785,-213,-23,-66,9,10,12,8,
315,203,-219,-139,738,782.2570190429688,19.3631591796875,57.59296417236328,-16.25776649412505,-10.235293869343378,-245,49,-467,7,11,10,9,
316,203,-230,-118,744,787.6293334960938,19.15773582458496,62.83675003051758,-16.978661202736866,-8.616301949314586,-75,122,115,12,10,13,12,
317,203,-215,-105,714,753.0245971679688,18.52449607849121,63.96698760986328,-16.589650185122014,-8.015308625208139,7,-206,1244,11,12,13,13,
318,208,-217,-120,722,763.3956909179688,18.952857971191406,61.054100036621094,-16.51439621654384,-9.043970256865347,-72,-434,156,13,8,7,8,
319,208,-206,-111,735,771.3507690429688,17.657794952392578,61.67916488647461,-15.489630603516712,-8.273782865950292,-167,-217,493,9,9,9,13,
320,208,-238,-45,733,771.983154296875,18.2838077545166,79.2901840209961,-17.95662252774606,-3.3417470526689668,66,92,308,8,8,9,10,
321,208,-227,-147,780,825.5531616210938,19.120285034179688,57.07020568847656,-15.960056798214383,-10.256922155979733,4,222,-258,10,9,13,13,
322,208,-238,-109,693,740.7928466796875,20.691438674926758,65.38963317871094,-18.740194981612362,-8.461201591812719,-29,-112,-262,14,9,11,11,
323,209,-224,-94,719,758.9288330078125,18.6661319732666,67.2316665649414,-17.16670211127982,-7.114856434378015,-32,-295,-509,9,8,10,11,
324,209,-222,-69,720,756.6009521484375,17.892261505126953,72.73103332519531,-17.06267117090317,-5.232493356584113,-49,-202,232,8,7,8,6,
325,209,-190,-84,780,807.190185546875,14.911383628845215,66.14617156982422,-13.614284510102072,-5.973282270252022,-326,-287,837,9,7,11,10,
326,209,-207,-165,796,838.8623046875,18.392765045166016,51.43781280517578,-14.286032558586543,-11.343756072620902,-506,8,-583,13,9,12,12,
327,209,-222,-124,774,814.699951171875,18.184856414794922,60.810569763183594,-15.812666541413252,-8.75463123935571,-138,-211,530,10,6,9,9,
328,216,-237,-99,720,764.4409790039062,19.630815505981445,67.32533264160156,-18.06106724409245,-7.441070127534573,-8,-122,318,8,9,8,8,
329,216,-215,-104,711,750.0413208007812,18.565649032592773,64.18255615234375,-16.65755428737356,-7.970257248652404,0,-21,-1448,8,9,11,12,
330,216,-242,-126,741,789.6334838867188,20.211698532104492,62.49229431152344,-17.846703303146928,-9.181805254769108,-77,190,941,7,7,10,6,
331,216,-197,-186,810,854.1106567382812,18.492250442504883,46.64118576049805,-13.33530015509845,-12.578110319264805,-137,195,302,10,9,9,12,
332,216,-211,-160,773,817.0985107421875,18.90763282775879,52.82342529296875,-14.965109510263407,-11.292326986365385,-52,-274,-60,9,8,12,10,
333,215,-230,-82,712,752.7070922851562,18.927297592163086,70.37451171875,-17.792082982518288,-6.254221489932068,-49,-13,393,6,6,9,6,
334,215,-254,-102,710,760.9336547851562,21.080333709716797,68.1175537109375,-19.499611194782222,-7.703449938240914,256,324,425,10,9,12,11,
335,215,-211,-119,790,826.3062133789062,17.04535484313965,60.57430648803711,-14.79451905555211,-8.280209645914992,-183,254,-848,10,8,8,8,
336,215,-213,-124,762,800.86767578125,17.92140769958496,59.790218353271484,-15.424095875320043,-8.907057233000021,58,-283,-838,10,9,11,10,
337,215,-222,-93,721,760.1144409179688,18.458541870117188,67.2669448852539,-16.98140193644472,-7.027746873267324,-7,-14,596,10,10,8,8,
338,220,-210,-129,692,734.578125,19.601362228393555,58.43460464477539,-16.6113607168584,-10.114216760049121,-138,-137,291,9,7,10,9,
339,220,-215,-106,742,779.7595825195312,17.90142250061035,63.752201080322266,-16.005284488765216,-7.812940685761662,-10,8,816,10,8,7,10,
340,220,-204,-99,720,754.8622436523438,17.478900909423828,64.10955047607422,-15.679024005371883,-7.536037476236908,-212,-282,22,7,10,11,12,
341,220,-216,-84,731,766.8591918945312,17.588720321655273,68.7462158203125,-16.3598054621153,-6.288667396795282,-158,-407,-329,8,14,13,11,
342,220,-209,-121,767,804.1212768554688,17.475116729736328,59.927879333496094,-15.064784168367304,-8.654443937583883,-162,-47,304,8,10,13,13,
343,221,-252,-144,732,787.44140625,21.62653160095215,60.251583099365234,-18.664364401753314,-10.53701741767252,161,-53,201,10,10,11,14,
344,221,-234,-159,755,806.2642211914062,20.53956413269043,55.800724029541016,-16.87157287112131,-11.373610527981192,-89,-258,452,10,10,11,11,
345,221,-247,-87,732,777.4329833984375,19.68266487121582,70.59314727783203,-18.524629807979448,-6.425243392426473,-176,-315,-675,15,12,15,12,
346,221,-222,-81,751,787.302978515625,17.4649658203125,69.95150756835938,-16.37813243976693,-5.905203935672681,-182,-377,290,13,14,15,18,
347,227,-219,-168,783,830.2252807617188,19.416040420532227,52.50358581542969,-15.294700184130496,-11.674690377543175,-160,-151,318,16,15,20,20,
348,227,-237,-167,796,847.1564331054688,20.011110305786133,54.82620620727539,-16.245847466627453,-11.369182989494627,-309,-211,-661,13,14,14,15,
349,227,-221,-87,756,792.430419921875,17.438695907592773,68.50888061523438,-16.193897969835714,-6.303141912696711,-151,-147,767,8,7,10,13,
350,227,-212,-75,705,739.9959716796875,17.689111709594727,70.51433563232422,-16.647817393162114,-5.817024581874414,-29,-28,-309,11,10,11,11,
351,227,-202,-88,737,769.2314453125,16.642580032348633,66.45661163330078,-15.224379558397406,-6.569013480674351,-94,-188,52,9,11,12,10,
352,227,-223,-111,726,767.54541015625,18.935548782348633,63.53437805175781,-16.8900809297002,-8.315092189776419,-88,-174,413,10,8,10,10,
353,227,-211,-125,759,797.6383666992188,17.904468536376953,59.35322570800781,-15.339080597111389,-9.016135993069815,-237,28,35,16,10,11,12,
354,227,-246,-81,695,741.6885986328125,20.43589973449707,71.77173614501953,-19.370507869017906,-6.269792037843008,35,30,403,13,9,10,9,
355,227,-258,-111,717,770.0480346679688,21.389354705810547,66.71771240234375,-19.575215240281278,-8.287878229162274,297,260,-90,11,9,12,10,
356,227,-232,-109,741,784.0828857421875,19.07965087890625,64.83116912841797,-17.210738120731666,-7.990905331194163,42,-339,597,12,7,8,11,
357,233,-234,-155,659,716.283447265625,23.068017959594727,56.47612762451172,-19.06777077902124,-12.497368644918835,40,-636,-390,20,9,12,10,
358,233,-252,-38,759,800.6428833007812,18.558368682861328,81.42185974121094,-18.345545591231392,-2.720386280023101,244,-12,99,13,9,11,10,
359,233,-222,-86,724,762.1390991210938,18.200490951538086,68.82098388671875,-16.934927420036622,-6.479072168719905,-135,147,-332,11,10,17,11,
360,233,-248,-107,726,774.6154174804688,20.404958724975586,66.65879821777344,-18.672533918504413,-7.939829300727442,-162,73,-980,21,12,12,15,
361,233,-200,-149,744,784.6890869140625,18.5299072265625,53.310157775878906,-14.76635687386939,-10.946021564301352,44,-292,1000,14,11,11,14,
362,236,-219,-93,725,763.0432739257812,18.16654396057129,66.98780059814453,-16.678951727208084,-7.000637012052492,-83,-215,-85,11,11,13,12,
363,236,-222,-97,747,785.3037719726562,17.96674156188965,66.39435577392578,-16.421006706617746,-7.095242682682965,61,-366,3,11,10,14,15,
364,236,-210,-177,799,844.8845825195312,18.96748924255371,49.870059967041016,-14.392000441023095,-12.092821964446705,-44,-145,1160,11,11,11,11,
365,236,-230,-96,790,828.3815307617188,17.507410049438477,67.34143829345703,-16.119989327362326,-6.654882266499614,-137,981,-10,7,6,10,10,
366,236,-231,-72,711,751.0432739257812,18.791879653930664,72.68518829345703,-17.912978161392093,-5.501202667914348,-203,-89,-356,8,7,6,6,
367,237,-246,-87,753,796.9278564453125,19.1102294921875,70.52019500732422,-17.980025009915632,-6.267427554843125,174,30,-462,13,9,8,9,
368,237,-227,-90,715,755.548828125,18.85422706604004,68.36957550048828,-17.484264323260735,-6.841243628424898,157,-91,-449,10,8,10,7,
369,237,-186,-150,734,771.9144897460938,18.030113220214844,51.11170196533203,-13.943167588946753,-11.20512171426279,156,-554,304,13,8,12,10,
370,237,-223,-114,756,796.405029296875,18.327016830444336,62.919944763183594,-16.260698316273192,-8.229773159190447,12,313,413,9,8,10,13,
371,237,-179,-72,729,754.0994873046875,14.821850776672363,68.08499908447266,-13.731321343691416,-5.4788392371794785,-206,-422,-327,15,10,13,15,
372,240,-224,-136,732,777.493408203125,19.69511604309082,58.732696533203125,-16.74455922854296,-10.07406648280589,-68,-222,795,9,14,10,6,
373,240,-227,-86,735,774.0477905273438,18.274463653564453,69.247314453125,-17.05344090982935,-6.378974607751298,-127,-30,290,12,9,10,13,
374,240,-213,-89,699,736.1324462890625,18.273799896240234,67.31953430175781,-16.8190513678799,-6.944171284444656,-270,-294,-719,11,10,8,9,
375,240,-207,-60,738,768.8257446289062,16.277366638183594,73.83236694335938,-15.61915275370305,-4.475976535719612,-145,-183,-333,7,8,6,5,
376,240,-224,-162,766,814.356201171875,19.841936111450195,54.12129592895508,-15.96582303267482,-11.474404200574785,-264,-137,785,8,6,7,9,
377,243,-225,-140,816,857.95166015625,17.989336013793945,58.105613708496094,-15.203762375719176,-9.391486228959849,-646,-64,-226,8,7,6,6,
378,243,-225,-117,719,762.4139404296875,19.426422119140625,62.52210235595703,-17.164450168043267,-8.827489051591908,-324,-120,379,10,11,8,10,
379,243,-204,-76,706,738.8017578125,17.135141372680664,69.56391143798828,-16.028936639272615,-5.904420317452568,-238,56,1313,9,6,9,5,
380,243,-207,-123,708,747.8248291015625,18.780731201171875,59.27754211425781,-16.069477230164395,-9.466854688446816,-240,117,-770,16,13,10,8,
381,243,-252,-99,690,741.2185668945312,21.422508239746094,68.5489730834961,-19.875696940290872,-7.675581810069369,-39,-285,3,7,14,7,7,
382,248,-224,-93,684,725.7279052734375,19.5218505859375,67.44950866699219,-17.97823073326212,-7.362539207236065,109,-658,-1312,12,7,8,6,
383,248,-177,-57,729,752.3423461914062,14.3074951171875,72.14649963378906,-13.60725813962008,-4.345085653757515,-330,-260,-680,12,10,8,7,
384,248,-224,-184,780,832.125,20.385251998901367,50.595516204833984,-15.616092399977328,-12.774861351669985,63,-38,1871,10,5,7,7,
385,248,-237,-225,818,880.862060546875,21.77484703063965,46.48392105102539,-15.608018202282254,-14.79916030981754,70,-34,5,14,7,10,7,
386,248,-220,-129,739,781.7684936523438,19.037630081176758,59.61064910888672,-16.34456873577801,-9.49784351535986,-97,-114,959,12,8,7,7,
387,247,-243,-132,731,781.5587158203125,20.719600677490234,61.48526382446289,-18.114510642150716,-9.723477352510907,15,-213,403,8,8,6,9,
388,247,-231,-111,711,755.7797241210938,19.819990158081055,64.33140563964844,-17.796949321544663,-8.445476865985595,263,-94,-534,6,9,7,7,
389,247,-224,-131,726,770.9818115234375,19.666305541992188,59.67643737792969,-16.890205140147906,-9.782772976834208,2,-356,-996,12,7,11,7,
390,247,-208,-109,723,760.1802368164062,17.991622924804688,62.34026336669922,-15.879751474286719,-8.243887788120439,75,-550,-778,10,7,6,5,
391,247,-211,-123,755,793.5206298828125,17.923646926879883,59.756900787353516,-15.420652225821634,-8.917110632846134,21,-243,494,12,9,11,12,
392,251,-220,-141,773,815.9718017578125,18.6752986907959,57.3401985168457,-15.641486704545109,-9.95066209091115,-121,-42,901,12,10,15,19,
393,251,-204,-150,768,808.6655883789062,18.245393753051758,53.669437408447266,-14.61172881447576,-10.689746783434224,59,-154,1012,8,5,9,11,
394,251,-220,-99,729,767.8815307617188,18.308874130249023,65.76889038085938,-16.64868353240339,-7.407542626373141,-105,68,-270,6,9,10,9,
395,251,-225,-82,703,742.6694946289062,18.809276580810547,69.97277069091797,-17.63554307970038,-6.3390951427714315,-67,-121,-571,7,7,6,5,
396,251,-230,-111,719,763.008544921875,19.55261993408203,64.23422241210938,-17.544011970195953,-8.36488772693314,-80,-338,-33,8,8,6,6,
397,253,-223,-111,712,754.31689453125,19.280675888061523,63.53437805175781,-17.19542149725103,-8.46197489151442,23,-467,-664,7,9,9,7,
398,253,-231,-139,722,770.69189453125,20.473665237426758,58.959781646728516,-17.441427369817045,-10.390579033314511,-26,-169,574,5,9,9,8,
399,253,-248,-63,740,782.9898071289062,19.07225227355957,75.74345397949219,-18.46556523680569,-4.615054168379073,43,105,769,7,9,6,6,
400,253,-237,-123,702,751.0672607421875,20.82306671142578,62.56779861450195,-18.394078841334874,-9.425612258054056,28,-255,866,8,8,8,7,
401,253,-210,-150,742,785.5978393554688,19.17573356628418,54.458621978759766,-15.504397610941103,-11.007493862930888,49,-378,677,10,9,10,10,
402,260,-213,-79,692,728.3364868164062,18.17249870300293,69.64732360839844,-17.004526664116597,-6.226915112705387,-80,-176,-906,7,7,9,12,
403,260,-210,-62,711,743.9522705078125,17.114704132080078,73.54824829101562,-16.3961006327738,-4.780499158813838,-95,-339,-430,8,5,7,9,
404,260,-231,-128,729,775.3618774414062,19.91172218322754,61.00511169433594,-17.33304117088984,-9.502126533993795,20,-207,-207,6,6,5,5,
405,260,-249,-156,730,786.9161376953125,21.9232177734375,57.92900466918945,-18.446866004766687,-11.434187551043804,93,-157,-21,7,6,7,6,
406,260,-227,-102,701,743.8642578125,19.543392181396484,65.80038452148438,-17.767983460643556,-7.881331034016033,-2,-422,1446,11,7,10,9,
407,262,-213,-78,739,773.0291137695312,17.06146812438965,69.88416290283203,-15.994163280725584,-5.791100373643237,-40,-56,192,7,7,6,5,
408,262,-210,-61,708,741.002685546875,17.162216186523438,73.79954528808594,-16.46321930610307,-4.721982975226663,-7,-190,31,7,9,7,8,
409,262,-235,-161,748,800.4061279296875,20.846330642700195,55.581031799316406,-17.073662777091567,-11.604091983663062,-151,6,320,6,8,6,5,
410,262,-250,-126,729,780.9077758789062,21.006202697753906,63.24845886230469,-18.671405275795394,-9.285302810077205,19,-85,-335,9,8,5,8,
411,265,-223,-93,747,785.1031494140625,17.921550750732422,67.35857391357422,-16.50141953513428,-6.802988945972296,40,-40,-864,7,8,7,8,
412,265,-225,-109,735,776.3575439453125,18.78375816345215,64.14897918701172,-16.846876437389326,-8.070948758110857,116,-253,-1223,7,6,5,7,
413,265,-237,-118,741,786.8760986328125,19.659154891967773,63.52828598022461,-17.529151382570323,-8.624612907362405,150,-14,1447,8,5,7,10,
414,265,-226,-129,738,782.5349731445312,19.42098617553711,60.278907775878906,-16.78642542791633,-9.488454561639221,103,44,1286,5,6,8,7,
415,265,-231,-138,745,792.1047973632812,19.85681915283203,59.142234802246094,-16.955452011100114,-10.033233647801051,13,-181,329,7,6,6,6,
416,266,-230,-153,756,804.88818359375,20.070138931274414,56.363807678222656,-16.6039225583089,-10.957949806477384,18,-98,-366,9,8,9,5,
417,266,-225,-98,704,745.5501098632812,19.21657943725586,66.46085357666016,-17.56518074005619,-7.553191463288653,28,-171,-877,6,7,6,7,
418,266,-220,-87,726,763.5738525390625,18.046833038330078,68.420166015625,-16.745366611645753,-6.542368613406285,4,-407,-562,8,5,6,6,
419,266,-224,-105,725,766.0457153320312,18.838844299316406,64.88176727294922,-17.002339760991536,-7.878192878680324,-65,-518,-546,13,7,9,9,
420,266,-225,-44,730,765.1542358398438,17.433135986328125,78.9321517944336,-17.10108120188857,-3.2965978299004335,-99,-20,483,10,6,6,7,
421,270,-222,-135,743,787.1200561523438,19.272499084472656,58.69230270385742,-16.38204587910206,-9.87570189923509,-124,-186,1177,7,7,6,6,
422,270,-213,-139,731,773.9838256835938,19.1826114654541,56.868614196777344,-15.97390583344421,-10.345897471876132,-126,-239,1163,5,7,7,7,
423,270,-213,-94,717,753.852783203125,17.987197875976562,66.18408203125,-16.412368616283146,-7.1630147425211055,-49,-302,698,10,5,7,7,
424,270,-227,-68,718,756.09326171875,18.26266098022461,73.32076263427734,-17.471268946531296,-5.1599250492912745,65,-209,-754,10,6,9,7,
425,270,-219,-99,756,793.2830810546875,17.633663177490234,65.67105865478516,-16.025665174154533,-7.1690806241125475,-31,-53,-743,7,9,7,6,
426,271,-227,-141,744,790.5352783203125,19.75496482849121,58.15011978149414,-16.687240882780298,-10.27425862637436,-27,23,240,8,7,5,6,
427,271,-221,-202,767,823.3674926757812,21.321760177612305,47.56793212890625,-15.569669838886412,-14.201570338816518,-29,-212,804,10,6,7,7,
428,271,-214,-86,730,765.5664672851562,17.531112670898438,68.10302734375,-16.232249835118726,-6.449942598029659,-39,-257,519,13,8,10,7,
429,271,-207,-62,741,771.8639526367188,16.25522232055664,73.32300567626953,-15.55611190952778,-4.607248919917562,-131,-95,693,10,13,8,6,
430,271,-222,-125,762,803.463134765625,18.48509979248047,60.61422348022461,-16.039733453323038,-8.950234217367395,20,131,81,9,7,6,4,
431,270,-249,-150,767,820.23779296875,20.75450325012207,58.931270599365234,-17.67218314741426,-10.5371956236757,97,-209,-409,13,11,9,7,
432,270,-210,-130,774,812.4506225585938,17.695642471313477,58.23691940307617,-14.979726683716953,-9.207460745108987,-41,-39,-310,7,16,9,7,
433,270,-219,-98,720,758.923583984375,18.427614212036133,65.88866424560547,-16.772160132683016,-7.419336333223665,-77,-75,-291,7,9,8,6,
434,270,-231,-115,702,747.9237670898438,20.180463790893555,63.53081512451172,-17.990240778146642,-8.844828298034797,22,-295,-195,11,11,7,6,
435,270,-201,-154,720,763.22802734375,19.373937606811523,52.53802490234375,-15.269236256402747,-11.640749951814875,-121,-566,1405,12,12,13,14,
436,275,-228,-59,687,726.2465209960938,18.92009925842285,75.48863220214844,-18.297014672052846,-4.6598234036801545,34,-558,389,9,8,13,12,
437,275,-221,-125,735,777.6187744140625,19.05508804321289,60.503501892089844,-16.511091297139913,-9.250265673284487,-99,-190,176,6,6,7,6,
438,275,-241,-112,740,786.2728271484375,19.752485275268555,65.07089233398438,-17.848994520312168,-8.189305792813974,-48,-284,-1025,6,6,6,7,
439,275,-240,-120,696,745.9329833984375,21.081064224243164,63.431514739990234,-18.768471383396623,-9.257534905055259,109,-371,-812,5,8,7,6,
440,275,-210,-63,725,757.4259033203125,16.823619842529297,73.297607421875,-16.096433255457296,-4.771171943930361,-83,-583,1386,8,8,8,9,
441,280,-220,-54,722,756.703369140625,17.41731834411621,76.20606994628906,-16.901952160360043,-4.092229883004171,30,-533,-70,6,7,9,6,
442,280,-227,-82,710,749.9019775390625,18.772794723510742,70.13534545898438,-17.620217874849953,-6.277710233836381,-50,219,854,5,9,8,6,
443,280,-207,-238,813,872.0447387695312,21.203067779541016,41.010948181152344,-13.731553042244823,-15.8382041486969,-91,251,-492,9,8,12,9,
444,280,-217,-115,748,787.2852172851562,18.17431640625,62.07499694824219,-15.99960531082246,-8.399337347965222,-11,-173,636,9,9,8,10,
445,280,-218,-67,731,765.7506103515625,17.325176239013672,72.91258239746094,-16.540198952931455,-5.019561386335389,-11,-353,751,10,7,9,8,
446,282,-208,-84,764,796.251220703125,16.36081314086914,68.00556945800781,-15.1427077488209,-6.055648589158923,-27,-25,-841,10,11,14,11,
447,282,-240,-126,732,780.5767211914062,20.3178768157959,62.297054290771484,-17.906524447916226,-9.289276200670404,-145,-76,-255,6,8,7,7,
448,282,-228,-135,716,763.4559326171875,20.305923461914062,59.36644744873047,-17.376055626464346,-10.185024246009139,-5,-120,241,6,6,9,8,
449,282,-216,-73,710,745.7110595703125,17.801246643066406,71.32344055175781,-16.837387598684877,-5.61786111215199,1,-74,526,6,7,7,7,
450,285,-226,-105,723,764.7417602539062,19.015745162963867,65.07695770263672,-17.18899651440733,-7.8917109157289485,81,-193,448,13,7,8,8,
451,285,-212,-138,727,769.7512817382812,19.18317222595215,56.934513092041016,-15.98666622496031,-10.327748573987682,36,-383,-110,8,7,10,8,
452,285,-229,-105,730,772.2473754882812,19.037574768066406,65.36443328857422,-17.2497318772752,-7.814528679039377,-67,-227,289,10,9,9,8,
453,285,-231,-109,735,778.1176147460938,19.161130905151367,64.73579406738281,-17.269722270542385,-8.052571203586078,-40,-197,47,8,12,9,8,
454,285,-201,-74,720,751.1837158203125,16.564783096313477,69.78510284423828,-15.520175370870476,-5.653444362328773,-118,-113,-22,7,9,9,9,
455,294,-220,-135,733,777.1190185546875,19.397092819213867,58.46162796020508,-16.44512538214179,-10.004094822236002,2,-258,429,11,8,9,12,
456,294,-236,-90,708,751.7047119140625,19.631757736206055,69.12208557128906,-18.297622557123116,-6.876396981383676,43,-352,248,12,6,7,11,
457,294,-222,-90,705,744.5864868164062,18.76496696472168,67.92879486083984,-17.346646320013267,-6.94245758816893,-13,-228,42,6,8,7,6,
458,294,-221,-76,756,791.2982788085938,17.17583656311035,71.01913452148438,-16.2177059046675,-5.511451110256415,-16,-132,297,9,9,10,9,
459,294,-260,-113,735,787.7778930664062,21.089916229248047,66.50614929199219,-19.271340955058385,-8.247037232571438,39,-112,319,10,6,9,8,
460,293,-231,-144,741,789.416259765625,20.16883087158203,58.05796432495117,-17.014954294139372,-10.510357787498993,36,-154,59,7,8,8,7,
461,293,-215,-102,731,768.7587280273438,18.02992820739746,64.6160659790039,-16.240606781360615,-7.624568839992277,10,-260,265,7,6,9,7,
462,293,-236,-77,724,765.3764038085938,18.923629760742188,71.92679595947266,-17.959522410887864,-5.77395816635105,94,-130,62,7,5,7,7,
463,293,-220,-111,762,800.8526611328125,17.918094635009766,63.223541259765625,-15.944566350482049,-7.9669738471721745,-8,-171,-16,10,5,8,7,
464,293,-214,-148,753,796.686279296875,19.060026168823242,55.329017639160156,-15.58172751336594,-10.705998597026143,-111,-67,-271,6,5,6,7,
465,297,-226,-146,747,793.9779663085938,19.806150436401367,57.13319778442383,-16.53748997154957,-10.596085645098071,-10,-208,75,7,5,8,8,
466,297,-227,-100,732,772.8861694335938,18.717700958251953,66.2217788696289,-17.079858910872147,-7.434064661424472,-48,-145,233,7,7,7,7,
467,297,-202,-114,725,761.19970703125,17.73883056640625,60.5579948425293,-15.388973191341414,-8.613226398180982,-58,-120,671,13,7,10,11,
468,297,-234,-101,749,791.175048828125,18.790103912353516,66.65047454833984,-17.20327203108784,-7.334290544454823,18,-191,588,10,7,10,9,
469,297,-237,-90,735,777.4921264648438,19.028047561645508,69.20262145996094,-17.74771038027791,-6.647278020991202,-42,-253,-16,7,6,6,8,
470,298,-226,-63,711,748.7095336914062,18.25980567932129,74.42048645019531,-17.568914522957456,-4.826848117737863,-12,-109,-23,7,7,8,8,
471,298,-233,-98,763,803.7798461914062,18.327152252197266,67.18501281738281,-16.85079469697408,-7.003151468851749,11,-80,-91,9,8,8,7,
472,298,-241,-108,747,792.3092651367188,19.468347549438477,65.85791778564453,-17.708485494525483,-7.834401137705042,139,-222,-189,13,9,9,10,
473,298,-234,-88,704,747.0715942382812,19.54856300354004,69.38704681396484,-18.253570166863838,-6.764762305090666,178,-71,-4,7,7,7,6,
474,298,-234,-86,741,781.8139038085938,18.592958450317383,69.81729125976562,-17.415802063219175,-6.31535016401446,154,-131,429,7,7,9,8,
475,295,-251,-117,709,761.1642456054688,21.333181381225586,65.00471496582031,-19.254087947195625,-8.842098206240975,371,-82,919,11,10,11,12,
476,295,-207,-98,723,758.4075317382812,17.574607849121094,64.66232299804688,-15.839308428447419,-7.4244130542308175,-122,-233,241,9,5,7,6,
477,295,-203,-105,729,763.9862670898438,17.404504776000977,62.64665985107422,-15.40923964247442,-7.89956508217677,-81,-311,14,5,5,4,5,
478,295,-217,-83,712,748.947265625,18.06982421875,69.0654525756836,-16.8423924875484,-6.362715250028421,81,-21,-407,9,9,8,7,
479,295,-231,-87,712,753.5741577148438,19.11859703063965,69.35919189453125,-17.850788481233664,-6.62957064836022,154,-35,36,5,11,8,8,
480,303,-222,-132,707,752.6998291015625,20.0660343170166,59.26095962524414,-17.153837480759865,-10.100115904640193,-47,-51,436,5,8,8,8,
481,303,-219,-97,713,752.15625,18.566804885864258,66.10701751708984,-16.92759075085491,-7.409647255211248,-24,-220,693,10,7,10,8,
482,303,-243,-65,723,765.50830078125,19.1815128326416,75.02146911621094,-18.507943465748927,-4.870901211911127,-52,-201,1654,7,9,8,10,
483,303,-201,-127,791,825.9606323242188,16.72767448425293,57.71002197265625,-14.084521822938063,-8.844907766133149,-122,-33,-47,9,9,9,10,
484,303,-232,-113,756,798.8297729492188,18.844938278198242,64.02729797363281,-16.883391690509374,-8.132160791518643,41,76,-440,7,8,9,9,
485,300,-234,-150,770,818.6305541992188,19.84617042541504,57.335472106933594,-16.60925875029553,-10.558120305663058,-34,-4,-567,8,14,8,7,
486,300,-222,-98,716,756.0053100585938,18.720569610595703,66.17799377441406,-17.076527497668778,-7.448138138431005,-60,-229,-519,8,13,8,10,
487,300,-210,-76,748,780.6279296875,16.621809005737305,70.10132598876953,-15.605614123301025,-5.587024799901793,-128,-65,57,8,12,7,7,
488,300,-212,-118,754,792.0757446289062,17.835365295410156,60.896018981933594,-15.524545291909874,-8.567568631427875,-214,32,731,6,7,7,11,
489,300,-242,-138,749,799.130126953125,20.400066375732422,60.302608489990234,-17.62761510743663,-9.944128319334316,66,-180,1049,9,8,12,8,
490,307,-210,-110,715,753.2761840820312,18.341346740722656,62.350563049316406,-16.187536834387345,-8.39685799799917,-120,-83,1059,9,5,7,8,
491,307,-212,-73,723,756.9689331054688,17.227535247802734,70.99617004394531,-16.264043889560348,-5.53404769431505,-5,-123,180,12,10,9,9,
492,307,-231,-108,723,766.6511840820312,19.425514221191406,64.93898010253906,-17.536328340639503,-8.09833225650938,133,-176,-867,6,5,7,8,
493,307,-221,-101,728,767.4802856445312,18.455427169799805,65.43557739257812,-16.73558094175928,-7.562029367848008,-117,-388,-1197,9,8,10,8,
494,307,-233,-198,786,843.3795166015625,21.25478172302246,49.638755798339844,-16.037679826197273,-13.578050926784515,31,-67,934,10,10,9,13,
495,308,-200,-96,705,739.0811767578125,17.465410232543945,64.35558319091797,-15.700346377630117,-7.4632941109152995,77,-47,458,11,10,12,10,
496,308,-195,-105,734,766.68505859375,16.788156509399414,61.69574737548828,-14.734582482289339,-7.871581143477214,-127,-193,637,7,10,7,7,
497,308,-220,-110,711,752.3436889648438,19.08075714111328,63.431514739990234,-17.002866781386366,-8.407340937417018,-371,-197,653,6,10,6,7,
498,308,-219,-82,714,751.3195190429688,18.13245964050293,69.46936798095703,-16.947011988981224,-6.265818607297289,-73,-185,123,10,10,8,6,
499,312,-176,-92,763,788.4218139648438,14.587118148803711,62.39923858642578,-12.898861758641372,-6.701042150427791,-218,17,-382,7,10,8,6,
500,312,-186,-117,754,785.3668212890625,16.24555015563965,57.8251838684082,-13.699638416417757,-8.567529660208482,-390,-99,-371,7,12,7,6,
501,312,-243,-141,768,817.7738037109375,20.091142654418945,59.87214279174805,-17.286396562092264,-9.928513055860233,-66,121,-233,13,16,12,12,
502,312,-244,-89,724,769.1768188476562,19.732662200927734,69.95710754394531,-18.495020811637946,-6.6444696053628425,-45,-154,553,9,14,11,10,
503,312,-251,-96,713,761.9619140625,20.649553298950195,69.06636810302734,-19.233137406123785,-7.237962073203169,131,-324,806,15,12,16,12,
504,315,-210,-72,734,766.837646484375,16.82590103149414,71.0721435546875,-15.893610411609547,-5.3875569091606454,-13,-87,1480,10,11,13,13,
505,315,-224,-118,748,789.68603515625,18.697607040405273,62.2169075012207,-16.478590340816016,-8.5936916118664,-39,-123,595,10,7,8,8,
506,315,-270,-108,755,809.0667724609375,21.0628604888916,68.19529724121094,-19.494588784074136,-7.671147188479562,142,-43,-632,12,9,11,13,
507,315,-258,-111,717,770.0480346679688,21.389354705810547,66.71771240234375,-19.575215240281278,-8.287878229162274,55,-52,-1153,9,9,9,9,
508,315,-221,-79,720,757.2859497070312,18.052085876464844,70.32652282714844,-16.96764559738004,-5.98798497994576,-12,1,-1141,6,8,8,7,
509,318,-230,-141,740,787.6427001953125,20.028118133544922,58.48631286621094,-16.978365117342324,-10.31240230138277,199,-104,618,10,10,8,8,
510,318,-234,-138,776,822.1776123046875,19.292007446289062,59.46674728393555,-16.535540321159118,-9.662659573002301,-47,-327,1275,9,12,10,6,
511,318,-222,-142,776,819.5266723632812,18.75540542602539,57.391780853271484,-15.717118718400112,-9.978041795795129,-60,112,696,9,11,7,6,
512,318,-201,-78,723,754.4627075195312,16.602792739868164,68.7874984741211,-15.45103461623745,-5.934117649744535,-102,104,-278,6,9,8,7,
513,318,-225,-119,708,752.3629150390625,19.77179527282715,62.12264633178711,-17.40102065138202,-9.100596243562041,0,-388,-572,9,12,8,7,
514,325,-213,-104,711,749.470458984375,18.435285568237305,63.972042083740234,-16.511073725647734,-7.976367498379041,-51,-196,-823,6,8,8,9,
515,325,-204,-129,732,770.7664794921875,18.246997833251953,57.68906784057617,-15.347439888046086,-9.634699880210157,-160,-550,-344,9,7,6,8,
516,325,-189,-83,731,759.5860595703125,15.766583442687988,66.28779602050781,-14.407680788608145,-6.273238264177703,-94,-145,789,8,9,9,10,
517,325,-231,-96,762,802.0106201171875,18.172164916992188,67.42967224121094,-16.739819483316126,-6.874740936544837,-44,-319,1362,14,12,15,10,
518,325,-213,-113,708,747.9318237304688,18.8048152923584,62.049835205078125,-16.546016458635698,-8.689710060922133,3,-276,539,7,5,8,7,
519,328,-233,-86,719,760.6878662109375,19.054391860961914,69.73771667480469,-17.836495978574135,-6.491486122077714,-145,-214,474,9,6,11,9,
520,328,-219,-72,696,733.1854858398438,18.323997497558594,71.79764556884766,-17.379333025171945,-5.635620724854425,-107,-196,-386,9,6,10,7,
521,328,-211,-88,754,787.8965454101562,16.865325927734375,67.35753631591797,-15.533493951058048,-6.412733582053954,-46,3,-859,6,7,8,8,
522,328,-209,-127,765,803.1406860351562,17.726289749145508,58.71123504638672,-15.083613399738288,-9.098325097343567,-184,147,-275,8,8,8,8,
523,328,-210,-162,801,843.768310546875,18.318450927734375,52.348602294921875,-14.411452192327262,-11.06928142043853,-113,177,96,9,8,10,9,
524,326,-240,-78,720,762.9442749023438,19.313257217407227,71.9926528930664,-18.334905507660032,-5.867915735335098,-36,4,1392,11,15,8,8,
525,326,-234,-92,703,746.6116943359375,19.678089141845703,68.53382110595703,-18.265211886283353,-7.078168633846376,-52,-18,592,8,9,6,5,
526,326,-196,-104,768,799.4097900390625,16.112350463867188,62.04554748535156,-14.192523873517247,-7.475138735500051,-182,-175,-85,7,8,9,8,
527,326,-212,-141,780,820.5028686523438,18.075590133666992,56.36869812011719,-14.973847599444678,-9.895156816053438,-25,1,-421,8,13,9,10,
528,326,-303,-75,714,779.2496337890625,23.611873626708984,76.09424591064453,-22.88206634117757,-5.523064062337992,-18,52,363,11,5,8,9,
529,333,-233,-84,723,764.247314453125,18.907899856567383,70.17176055908203,-17.750650974976427,-6.310246261022601,-73,47,-24,9,6,8,8,
530,333,-249,-124,732,783.071533203125,20.805246353149414,63.52362823486328,-18.540724336231342,-9.111183624383678,29,-69,-1081,10,9,9,9,
531,333,-210,-144,702,746.7529907226562,19.93463134765625,55.55733108520508,-16.33288205656985,-11.118269452074014,-39,-308,477,9,6,9,8,
532,333,-216,-108,675,716.8995971679688,19.68365478515625,63.431514739990234,-17.535546498072307,-8.664522427631548,-215,-421,1105,10,7,13,13,
533,333,-210,-57,717,749.2916870117188,16.88006591796875,74.8110580444336,-16.276003154971605,-4.36281049788711,-205,66,189,12,8,10,11,
534,329,-237,-73,707,749.23095703125,19.3267879486084,72.87712097167969,-18.440782940005494,-5.591384231752807,78,38,509,8,6,7,7,
535,329,-230,-111,741,783.7742309570312,19.01430320739746,64.23422241210938,-17.06472751226301,-8.141739642137775,219,-232,132,5,5,6,4,
536,329,-202,-93,711,744.9657592773438,17.36603546142578,65.27545928955078,-15.73291225993818,-7.171397723199967,-111,-211,-1025,9,7,7,8,
537,329,-197,-87,708,740.0283813476562,16.91626739501953,66.16921997070312,-15.43862628414658,-6.751480574979983,-134,-314,358,8,11,10,11,
538,335,-238,-120,755,800.6678466796875,19.442691802978516,63.23923873901367,-17.29261750815357,-8.619675933805603,81,-259,923,11,8,12,12,
539,335,-231,-150,792,838.5255126953125,19.173725128173828,56.99866485595703,-15.990834130153234,-10.304846468766033,33,-41,755,13,12,17,13,
540,335,-202,-132,786,822.206787109375,17.06452178955078,56.83313751220703,-14.222040178478387,-9.238447461547063,-41,78,-268,10,9,11,10,
541,335,-230,-115,740,783.406005859375,19.160099029541016,63.431514739990234,-17.07299346791751,-8.441231047131497,-17,-45,-147,8,8,8,9,
542,335,-259,-114,672,729.15087890625,22.833948135375977,66.23973846435547,-20.806173894462386,-8.99488227388242,223,113,-425,13,9,9,11,
543,346,-196,-131,735,771.8821411132812,17.781269073486328,56.23886489868164,-14.709882945176036,-9.77125099164657,-195,-285,-144,11,8,11,13,
544,346,-216,-108,767,804.1199951171875,17.474836349487305,63.431514739990234,-15.581964201513847,-7.718624693334483,-174,250,41,9,8,10,10,
545,346,-210,-123,749,787.5468139648438,17.99823570251465,59.63833999633789,-15.46506741152554,-8.985307807199446,-102,19,545,10,9,11,10,
546,346,-263,-87,738,788.2778930664062,20.572118759155273,71.69267272949219,-19.489778955995565,-6.336481907253128,137,146,-116,11,11,17,17,
547,346,-225,-111,732,773.8023071289062,18.9168758392334,63.737911224365234,-16.90417689683037,-8.247387265168777,64,101,349,10,11,12,11,
548,338,-195,-98,751,782.0677490234375,16.201692581176758,63.3140983581543,-14.438401356462142,-7.198590853280771,-154,-134,721,9,8,9,7,
549,338,-226,-88,699,739.8790283203125,19.13287925720215,68.72174835205078,-17.785559934968386,-6.830836281549324,-135,-253,140,7,10,12,12,
550,338,-244,-132,723,774.3958740234375,20.989877700805664,61.583839416503906,-18.365903912754156,-9.814300890319888,-92,-102,-245,6,7,9,11,
551,338,-236,-106,750,793.3674926757812,19.029754638671875,65.80928039550781,-17.305479298035532,-7.678117067350469,44,44,2122,10,6,9,9,
552,338,-221,-165,804,849.9894409179688,18.931697845458984,53.251007080078125,-15.070254324724209,-11.193324840298244,-151,-28,-1340,8,12,14,14,
553,338,-229,-82,711,751.4559326171875,18.884117126464844,70.29541015625,-17.74262827446237,-6.264676597681059,-168,-272,-916,9,7,7,8,
554,338,-195,-117,700,736.01220703125,17.995161056518555,59.03267288208008,-15.363461914223722,-9.146811739900354,-265,-371,1418,18,9,11,14,
555,338,-201,-96,781,812.1441040039062,15.916476249694824,64.46688842773438,-14.329212195464729,-6.788555530297437,-259,-365,-916,8,8,13,12,
556,338,-217,-130,741,782.9878540039062,18.84663200378418,59.07152557373047,-16.089793742784398,-9.557113396882098,-248,-174,250,11,7,12,12,
557,338,-231,-160,770,819.6712646484375,20.04673194885254,55.28826904296875,-16.3688756368071,-11.256419172363314,-203,65,957,9,7,9,7,
558,341,-216,-95,732,769.0936279296875,17.86516571044922,66.25604248046875,-16.310946263876147,-7.095412472766985,-115,-173,21,7,7,8,7,
559,341,-223,-72,730,766.6896362304688,17.79487419128418,72.10311126708984,-16.909500911296615,-5.388600162103068,-137,-479,-371,10,8,12,10,
560,341,-235,-120,727,773.4041748046875,19.94635772705078,62.945953369140625,-17.689079560916653,-8.92597160608192,-11,-172,743,9,7,9,9,
561,341,-200,-110,718,753.4082641601562,17.633472442626953,61.185707092285156,-15.394307134997261,-8.395375339007709,-108,90,163,7,8,9,10,
562,341,-217,-122,765,804.4861450195312,18.023630142211914,60.65127182006836,-15.648640616503707,-8.722534965256543,-190,138,-724,15,10,11,10,
563,352,-256,-83,755,801.52978515625,19.616477966308594,72.03314971923828,-18.625993521362986,-5.9437465951106505,-58,50,127,8,9,11,12,
564,352,-240,-150,688,743.9381713867188,22.358579635620117,57.991024017333984,-18.82068625962156,-11.632273297879411,-51,55,461,14,10,12,11,
565,352,-248,-69,729,773.114501953125,19.44674301147461,74.4489517211914,-18.710128893650374,-5.1204268427524005,-76,-81,-656,8,6,8,7,
566,352,-252,-81,708,755.8630981445312,20.497066497802734,72.17793273925781,-19.474890053484426,-6.151758256482126,-48,-371,721,8,6,9,10,
567,352,-207,-111,702,740.252685546875,18.49767303466797,61.794883728027344,-16.238377045472795,-8.623959613113078,-25,-422,-426,8,6,9,8,
568,358,-218,-101,732,770.4213256835938,18.168981552124023,65.13818359375,-16.437069396335843,-7.532994120857956,-152,-171,-173,7,7,7,9,
569,358,-207,-144,717,760.0487060546875,19.374101638793945,55.17182159423828,-15.80421159578038,-10.92136243351024,-20,-140,609,5,4,6,7,
570,358,-232,-66,731,769.766845703125,18.2590274810791,74.11673736572266,-17.541106520761822,-4.918593328858066,-133,-218,288,12,8,8,9,
571,358,-228,-96,744,784.051025390625,18.39029312133789,67.16301727294922,-16.905701397043764,-7.033001330484717,-77,-50,663,12,9,12,9,
572,358,-225,-96,777,814.5980834960938,17.4735107421875,66.89033508300781,-16.03412570793951,-6.7680091429549805,-44,-61,296,9,9,10,10,
573,356,-229,-126,750,794.2398681640625,19.211374282836914,61.176090240478516,-16.757761842690137,-9.128096132386087,-107,61,526,12,8,8,9,
574,356,-213,-172,783,829.4829711914062,19.270061492919922,51.074913024902344,-14.879467416088806,-11.967574008250237,-264,-178,-876,13,7,9,8,
575,356,-301,-60,744,804.8211059570312,22.415586471557617,78.72369384765625,-21.962282967165606,-4.275408734583942,-217,204,-1224,12,9,13,10,
576,356,-204,-65,738,768.4302368164062,16.17607879638672,72.32351684570312,-15.395255676835802,-4.852335534084935,-345,-448,1701,8,7,11,11,
577,356,-243,-168,773,827.5276489257812,20.91348648071289,55.33796691894531,-17.076350154820556,-11.713286573557458,149,-299,-396,23,13,18,17,
578,364,-198,-90,746,777.0585327148438,16.251766204833984,65.55267333984375,-14.762152382146473,-6.651003665556384,38,391,1034,10,9,7,9,
579,364,-186,-77,738,764.96337890625,15.255478858947754,67.5081787109375,-14.07246515004267,-5.777085952439028,-447,58,8,10,11,8,9,
580,364,-220,-63,691,727.907958984375,18.32152557373047,74.01708984375,-17.59195285714505,-4.965127554875694,-83,-152,-493,13,6,6,10,
581,364,-222,-127,706,750.8988037109375,19.911653518676758,60.22379684448242,-17.196260415760783,-9.737276971567729,-7,72,-256,9,8,8,9,
582,360,-201,-135,716,755.8319702148438,18.681774139404297,56.10939025878906,-15.422346557804458,-10.288872028213271,10,-360,-294,11,6,8,6,
583,360,-240,-79,717,760.2171020507812,19.410160064697266,71.77698516845703,-18.40303519358985,-5.964813471182104,-74,-284,649,8,7,8,10,
584,360,-232,-63,746,783.7786865234375,17.85963249206543,74.80448913574219,-17.217627327332814,-4.610398990865174,-207,268,35,12,7,14,13,
585,360,-265,-162,711,775.880126953125,23.595760345458984,58.55811309814453,-19.971190179215135,-12.051753448856232,-20,-471,612,11,10,9,11,
586,360,-205,-123,719,757.7037963867188,18.389965057373047,59.03267288208008,-15.697252598313176,-9.342312941611072,-49,-290,588,11,5,7,6,
587,366,-253,-86,708,756.7489624023438,20.67572784423828,71.22281646728516,-19.5314888575262,-6.525420777148043,-60,-344,-143,11,10,11,11,
588,366,-248,-60,699,744.1135864257812,20.05145835876465,76.39640045166016,-19.468129023072958,-4.624943075364378,-71,-339,-38,8,7,8,8,
589,366,-212,-165,785,829.6951293945312,18.889888763427734,52.10253143310547,-14.804135611270967,-11.470783947045348,-247,-300,-1088,14,10,10,8,
590,366,-218,-141,785,826.8192138671875,18.298595428466797,57.10203552246094,-15.287405901064458,-9.8188130721978,-225,-204,404,12,6,9,9,
591,366,-221,-156,702,752.3170776367188,21.0719051361084,54.77870559692383,-17.083143246452856,-11.967649516503084,-95,-1,-2,16,9,8,11,
592,370,-226,-63,679,718.3912353515625,19.059616088867188,74.42048645019531,-18.336172977854055,-5.031070254558016,-221,-26,1319,11,8,10,12,
593,370,-219,-92,744,781.0,17.70476722717285,67.20982360839844,-16.28466025586168,-6.765018297113956,51,-4,1215,8,8,9,8,
594,370,-234,-126,772,816.465576171875,18.99431800842285,61.69574737548828,-16.654583262569034,-8.877576243551934,-51,208,-650,10,8,9,8,
595,370,-242,-138,760,809.44921875,20.12862777709961,60.302608489990234,-17.39567334370456,-9.816094878099566,-127,-27,-515,9,7,7,6,
596,370,-213,-102,738,774.8657836914062,17.74275779724121,64.4080810546875,-15.955239168199869,-7.564123296889935,-104,98,-639,10,9,7,7,
597,374,-266,-78,702,754.7476196289062,21.54566764831543,73.65397644042969,-20.636364930132274,-5.931869480870274,93,114,-696,12,9,10,13,
598,374,-233,-102,673,719.4595336914062,20.70113754272461,66.3543701171875,-18.896172580825603,-8.150460399365368,108,-254,506,11,12,17,19,
599,374,-215,-98,682,721.770751953125,19.106760025024414,65.49246215820312,-17.330226619539417,-7.803563186711531,24,-387,1083,12,6,12,15,
600,374,-195,-99,743,774.5159912109375,16.398880004882812,63.079994201660156,-14.582284997700826,-7.343738567800373,18,-82,733,9,7,9,9,
601,374,-243,-148,825,872.6843872070312,19.025970458984375,58.652767181396484,-16.16778863380587,-9.764078826994123,-129,-5,-512,20,12,14,6,
602,378,-228,-138,700,749.0180053710938,20.841270446777344,58.81145095825195,-17.721982872142824,-10.616897521371508,235,-884,-1334,15,10,8,9,
603,378,-218,-84,745,780.7720336914062,17.4086971282959,68.92400360107422,-16.213109225729283,-6.176167164439074,-92,-153,-407,8,6,9,8,
604,378,-225,-134,744,788.7439575195312,19.389415740966797,59.22029113769531,-16.574610770316127,-9.781445037821456,-73,-499,630,9,6,8,9,
605,378,-212,-63,740,772.342529296875,16.63759422302246,73.44650268554688,-15.931600356404457,-4.67881650613728,-71,-221,642,7,9,10,11,
606,378,-216,-163,781,826.5506591796875,19.10810661315918,52.95695877075195,-15.14881581764819,-11.373567824559801,-235,-211,525,8,9,9,8,
607,381,-211,-115,773,809.4906005859375,17.266857147216797,61.40507507324219,-15.109094758268995,-8.167336591085727,-336,43,677,10,7,8,6,
608,381,-206,-106,705,742.089599609375,18.189077377319336,62.76787185668945,-16.116689577880578,-8.212211998112961,-68,-144,-179,10,9,8,11,
609,381,-213,-74,709,743.9932861328125,17.640466690063477,70.8386459350586,-16.63614745336936,-5.708263681365937,-40,-510,5,8,8,9,7,
610,381,-207,-76,705,738.6812744140625,17.366561889648438,69.83605194091797,-16.27387988094913,-5.905386722627931,-243,34,-124,12,11,10,9,
611,381,-181,-179,760,801.4998168945312,18.516191482543945,45.314327239990234,-13.051491090804841,-12.904771828009626,-332,-156,-1040,8,7,9,10,
612,381,-210,-186,765,814.8134765625,20.136093139648438,48.464351654052734,-14.935274295326131,-13.195423363912774,-227,-255,484,11,11,12,10,
613,381,-226,-99,745,784.7942504882812,18.32196807861328,66.34068298339844,-16.736675503820454,-7.2470396821859495,-142,-193,1102,12,8,9,9,
614,381,-229,-105,738,779.8140869140625,18.84581184387207,65.36443328857422,-17.07718690161875,-7.73823580698238,32,-59,650,8,10,11,9,
615,381,-239,-180,723,782.4640502929688,22.479347229003906,53.011451721191406,-17.7849586392602,-13.2995748328848,-44,-339,466,11,8,12,9,
616,381,-227,-129,748,792.2587890625,19.239755630493164,60.38768768310547,-16.64987943659023,-9.370941362718298,-213,-247,-635,9,17,17,18,
617,387,-237,-106,739,783.2789916992188,19.355257034301758,65.89970397949219,-17.612279926568316,-7.777617878455097,13,-150,-300,9,9,8,7,
618,387,-240,-109,688,736.7666015625,20.961225509643555,65.57066345214844,-19.01087864100703,-8.507781718751673,89,-263,-648,9,9,7,8,
619,387,-237,-150,726,778.2962036132812,21.121309280395508,57.66619873046875,-17.72876554375473,-11.112069670758075,65,-42,575,12,7,10,15,
620,387,-240,-100,710,756.1084594726562,20.11052703857422,67.37681579589844,-18.50665358825336,-7.599986600421586,68,-452,892,7,8,10,13,
621,387,-228,-137,752,797.6571655273438,19.477418899536133,58.99573516845703,-16.608891121160333,-9.88975666555663,135,-386,36,8,7,6,9,
622,382,-248,-67,726,770.1097412109375,19.48396110534668,74.87870788574219,-18.785858010931882,-4.991076425132924,176,-324,723,6,9,8,8,
623,382,-205,-141,759,798.7409057617188,18.14763641357422,55.4759407043457,-14.871611367323625,-10.16758100705437,82,-36,-195,7,9,8,7,
624,382,-226,-158,790,836.7437133789062,19.239713668823242,55.038330078125,-15.66989960545508,-10.884351091866261,-24,60,-1149,12,6,10,8,
625,382,-237,-150,752,802.6038818359375,20.452388763427734,57.66619873046875,-17.174860461544366,-10.771442295334852,2,-1,-253,9,6,8,9,
626,382,-225,-99,714,755.1304321289062,18.995548248291016,66.24715423583984,-17.335222868859653,-7.533345232017337,-33,-147,372,14,8,9,6,
627,387,-243,-134,720,771.6249389648438,21.075305938720703,61.122379302978516,-18.355975237131226,-10.000659042059418,88,-44,648,13,10,9,6,
628,387,-211,-110,702,741.2320556640625,18.722633361816406,62.4622802734375,-16.538596818211722,-8.534306179648603,-18,-536,563,14,7,12,11,
629,387,-224,-74,716,753.862060546875,18.233837127685547,71.71546936035156,-17.28570092237718,-5.633293695881159,15,-134,97,10,10,10,6,
630,387,-210,-69,732,764.64697265625,16.800813674926758,71.8077621459961,-15.940355482972452,-5.177283102829551,-147,-598,291,11,9,8,8,
631,387,-233,-145,780,826.8699951171875,19.381744384765625,58.10167694091797,-16.366799538315806,-10.099613939713882,-116,-102,-627,11,10,8,9,
632,390,-226,-101,727,767.98828125,18.801496505737305,65.91664123535156,-17.11408770189909,-7.556998221939759,-164,-339,-871,13,9,12,13,
633,390,-228,-102,717,759.2608032226562,19.20433235168457,65.89440155029297,-17.475145989144426,-7.720525627713365,13,-392,-4,9,7,9,10,
634,390,-225,-96,726,766.1051025390625,18.619029998779297,66.89033508300781,-17.07920390689752,-7.198610888922392,0,-141,1232,8,5,7,7,
635,390,-227,-126,708,754.1014404296875,20.136003494262695,60.96331024169922,-17.51890733004856,-9.618451726330592,21,-134,409,11,7,7,10,
636,390,-219,-141,732,776.95947265625,19.58482551574707,57.221500396728516,-16.371723808431227,-10.455782335674844,33,-436,-55,12,8,9,8,
637,392,-216,-70,726,760.6786499023438,17.36514663696289,72.04065704345703,-16.4965115237341,-5.280004747875599,-5,-163,32,7,11,12,8,
638,392,-214,-86,753,787.5284423828125,17.026973724365234,68.10302734375,-15.767608674685754,-6.269340013758578,-267,186,-91,10,9,8,7,
639,392,-240,-151,766,816.7968139648438,20.311012268066406,57.819664001464844,-17.08743623368558,-10.653465916564775,-119,-83,-514,10,11,9,8,
640,392,-225,-132,735,779.9192504882812,19.538427352905273,59.59772491455078,-16.767660680232158,-9.744116275751603,94,-261,33,11,8,11,10,
641,392,-237,-93,730,773.1222534179688,19.224571228027344,68.57141876220703,-17.8513914340839,-6.90892361988805,44,102,419,11,8,9,10,
642,400,-218,-133,718,762.06103515625,19.576677322387695,58.60939407348633,-16.622598829061573,-10.051116521908043,-70,-275,1185,12,7,9,10,
643,400,-223,-116,696,740.0006713867188,19.855541229248047,62.514015197753906,-17.53876997068929,-9.018688315641047,-91,-245,603,12,10,10,11,
644,400,-213,-100,691,729.9657592773438,18.803142547607422,64.84732055664062,-16.965421376116765,-7.873865537453306,-102,-95,-247,10,9,12,9,
645,400,-223,-63,729,764.9437866210938,17.631839752197266,74.22129821777344,-16.949258986021647,-4.724173674102206,-40,-173,-517,7,8,7,8,
646,398,-221,-87,746,782.8959350585938,17.658048629760742,68.50888061523438,-16.396645577962357,-6.380221932066916,-24,22,-207,7,6,6,7,
647,398,-216,-121,700,742.4937744140625,19.476045608520508,60.73957443237305,-16.912535955704833,-9.378998629922707,19,-328,59,8,8,7,7,
648,398,-236,-92,723,766.0867919921875,19.305482864379883,68.6993637084961,-17.942300676594225,-6.897344601183137,-2,20,399,13,11,9,10,
649,398,-218,-105,741,779.5062255859375,18.08201026916504,64.27872467041016,-16.240164686316113,-7.741310358154356,-4,-286,223,13,11,12,14,
650,398,-214,-84,753,787.3125,16.975603103637695,68.5655517578125,-15.772045038101243,-6.124662561504091,-74,-95,611,10,11,11,10,
651,399,-220,-144,761,805.1441040039062,19.05872917175293,56.789791107177734,-15.857336825325886,-10.302781290800368,-70,-106,48,8,9,7,8,
652,399,-205,-181,782,828.4382934570312,19.272964477539062,48.5539665222168,-14.326877704561392,-12.619970378130812,-7,-285,239,6,7,10,9,
653,399,-213,-97,714,751.3814086914062,18.14686393737793,65.51214599609375,-16.467885236136553,-7.417331179946232,18,-337,41,7,7,8,7,
654,399,-228,-96,738,778.3598022460938,18.529653549194336,67.16301727294922,-17.033072192641296,-7.084687893333139,6,-186,-206,8,10,7,8,
655,399,-219,-96,762,798.636962890625,17.419816970825195,66.32611083984375,-15.915370428741108,-6.903922564241784,-42,-27,154,15,16,10,13,
656,409,-216,-174,798,844.8289794921875,19.164169311523438,51.142822265625,-14.813470089736178,-11.885634657189874,90,-100,300,9,10,10,12,
657,409,-191,-105,750,781.02880859375,16.202301025390625,61.19721221923828,-14.155196667337972,-7.726127045967682,80,174,128,8,7,9,9,
658,409,-226,-84,692,732.8001098632812,19.20720863342285,69.60758209228516,-17.963198951992496,-6.5822154955438466,-10,-97,-393,14,6,8,7,
659,409,-231,-97,716,758.568359375,19.283639907836914,67.2184829711914,-17.729348112913907,-7.346666708625308,-62,-203,472,10,10,8,11,
660,409,-214,-156,705,753.0982666015625,20.586017608642578,53.905277252197266,-16.508612271810126,-11.95505216994028,-3,-574,26,11,13,11,9,
661,411,-205,-90,718,752.0963745117188,17.31633758544922,66.29399871826172,-15.817340005949212,-6.872798635804854,-61,-376,280,8,9,12,10,
662,411,-209,-57,717,749.0120239257812,16.80942726135254,74.74177551269531,-16.202573708496793,-4.364442545086836,-101,-424,473,9,11,8,7,
663,411,-259,-44,680,728.9835205078125,21.12148666381836,80.35546875,-20.811171637053512,-3.4603628100308788,117,13,-257,13,8,10,9,
664,411,-226,-99,674,717.7415771484375,20.104215621948242,66.34068298339844,-18.353361574935732,-7.92823518284465,173,-211,714,14,12,14,12,
665,411,-208,-124,703,743.5381469726562,19.004802703857422,59.19499206542969,-16.244899146329406,-9.600083811215002,17,-303,-273,15,9,13,12,
666,416,-215,-61,714,748.1590576171875,17.37827491760254,74.15713500976562,-16.700689175566204,-4.676714668788733,-64,-266,837,8,10,13,12,
667,416,-231,-36,741,777.0057983398438,17.508544921875,81.13912200927734,-17.295211652789913,-2.6555615861387185,4,-226,248,10,9,11,9,
668,416,-216,-123,756,795.814697265625,18.19827651977539,60.33736038208008,-15.748781138900416,-8.891197236455762,-38,-175,506,9,9,8,8,
669,416,-204,-210,823,873.5244750976562,19.580366134643555,44.165672302246094,-13.505380444830456,-13.910468648284107,-31,38,286,7,10,9,7,
670,416,-195,-126,729,765.0764770507812,17.663074493408203,57.12769317626953,-14.766266385853429,-9.479192758616596,-108,-5,-618,12,12,12,9,
671,413,-231,-48,732,769.0831909179688,17.862762451171875,78.25843048095703,-17.4790834254741,-3.5782681682953035,-15,-228,271,11,11,11,12,
672,413,-230,-101,750,790.9494018554688,18.515249252319336,66.28890228271484,-16.905244107990235,-7.3363944158822285,-55,-26,504,17,10,13,9,
673,413,-212,-93,726,762.0164184570312,17.683935165405273,66.31058502197266,-16.1533552278581,-7.010117950555694,-27,-194,-371,16,12,9,8,
674,413,-199,-153,746,787.0997314453125,18.595218658447266,52.441551208496094,-14.64485780810163,-11.208770838320953,-70,-35,469,12,10,11,11,
675,413,-226,-64,741,777.3370971679688,17.58578872680664,74.18550872802734,-16.90203323944108,-4.722642548367459,-114,-308,-46,9,11,12,10,
676,413,-218,-144,742,786.6536865234375,19.395631790161133,56.54957962036133,-16.088584361057706,-10.547689950785903,-53,-321,353,8,10,6,6,
677,413,-228,-111,725,768.0690307617188,19.276290893554688,64.03780364990234,-17.26840431192736,-8.30938395850213,43,-174,2,7,9,6,7,
678,413,-221,-102,725,764.7679443359375,18.556243896484375,65.22148895263672,-16.796693450873867,-7.664594663932137,17,-341,-661,6,5,8,5,
679,413,-222,-74,731,767.5421752929688,17.748838424682617,71.56185150146484,-16.81215723996588,-5.532573782116276,14,-154,64,8,7,6,6,
680,413,-221,-86,720,758.0481567382812,18.228002548217773,68.73370361328125,-16.950068778767996,-6.514188678043959,10,-212,-59,8,7,6,6,
681,421,-234,-96,698,742.4122924804688,19.916393280029297,67.69048309326172,-18.372208839879615,-7.429617980317061,77,2,554,8,7,7,8,
682,421,-224,-96,732,771.50244140625,18.41203498840332,66.7980728149414,-16.878466423600376,-7.1479863474094305,-108,-271,908,11,9,8,10,
683,421,-217,-81,740,775.4031372070312,17.37830924987793,69.52754974365234,-16.25151695125712,-5.996159024055087,-83,-165,237,8,10,6,6,
684,421,-189,-108,757,787.6763305664062,16.040796279907227,60.251583099365234,-13.883369405572092,-7.880773443631514,-54,-110,-148,9,8,7,7,
685,421,-227,-162,764,813.3074340820312,20.051218032836914,54.48250198364258,-16.20692951380837,-11.489401627988919,-50,-100,-399,7,7,5,5,
686,421,-221,-219,759,820.29443359375,22.287769317626953,45.2564582824707,-15.629485625983229,-15.484477459657088,-83,-515,-66,8,7,6,6,
687,421,-215,-91,696,734.1130981445312,18.54132652282715,67.05587768554688,-17.029882009796463,-7.120649456805852,-45,-307,124,7,6,6,6,
688,421,-221,-79,759,794.4577026367188,17.18033790588379,70.32652282714844,-16.15144348733948,-5.706860954080128,26,25,247,6,7,10,12,
689,421,-219,-121,722,764.1243286132812,19.111295700073242,61.07534408569336,-16.65466586598332,-9.11120650203442,-44,-429,957,7,8,12,13,
690,428,-204,-151,755,796.5186767578125,18.578771591186523,53.48755645751953,-14.83963586350658,-10.927980689519174,6,-158,407,8,9,10,10,
691,428,-223,-135,714,760.0986938476562,20.054967880249023,58.8065071105957,-17.06059787945409,-10.230493645117416,28,-108,-121,7,7,7,6,
692,428,-225,-84,722,760.8975219726562,18.397260665893555,69.52445983886719,-17.199722933553343,-6.338140698255049,76,-293,-437,7,10,7,9,
693,428,-206,-150,735,777.9209594726562,19.119403839111328,53.93585205078125,-15.355568106695937,-11.117498417746324,-123,-370,-450,9,5,7,7,
694,428,-219,-108,727,766.9119873046875,18.563886642456055,63.7463264465332,-16.592373103166782,-8.095559494951523,-88,-277,33,7,6,5,6,
695,425,-241,-132,729,779.0673828125,20.6508731842041,61.286197662353516,-18.019715025854843,-9.754874624267645,-91,-156,513,10,7,10,9,
696,425,-209,-93,724,759.2799072265625,17.53249168395996,66.00871276855469,-15.977556835224,-7.035510277460465,-20,-249,1009,6,8,6,7,
697,425,-219,-95,693,732.963134765625,19.005178451538086,66.54593658447266,-17.384773163385905,-7.447107090185863,-122,12,890,8,6,8,8,
698,425,-219,-131,723,766.7144165039062,19.438915252685547,59.10968017578125,-16.59677243437179,-9.837762410105004,-84,-222,64,14,8,9,8,
699,425,-211,-104,723,760.3065185546875,18.020898818969727,63.75830841064453,-16.112225409162022,-7.861962539919751,-3,-167,-255,8,7,8,7,
700,434,-219,-86,740,776.5030517578125,17.635766983032227,68.55707550048828,-16.38161748932522,-6.358721316878031,-40,-181,-675,8,8,11,9,
701,434,-216,-106,753,790.5067749023438,17.718210220336914,63.857513427734375,-15.85730190029831,-7.7060712914016465,8,60,-178,13,10,10,10,
702,434,-233,-141,759,806.3814086914062,19.73674774169922,58.816192626953125,-16.794814132926305,-10.07023283332516,122,-222,663,8,12,13,13,
703,434,-234,-99,741,783.3505249023438,18.924177169799805,67.06456756591797,-17.38055101830701,-7.260468134378387,-54,-363,1142,10,6,10,9,
704,434,-237,-89,717,760.3807983398438,19.445144653320312,69.4142074584961,-18.16086148898234,-6.721684656695856,-29,-361,652,9,7,8,8,
705,444,-219,-90,755,791.2559814453125,17.409564971923828,67.65604400634766,-16.067830388262532,-6.531141134063898,-140,-127,-413,6,4,6,6,
706,444,-204,-139,756,795.28173828125,18.08112144470215,55.72688674926758,-14.863248746631532,-10.065904203981711,25,-53,-639,7,7,5,5,
707,444,-231,-150,753,801.791748046875,20.089202880859375,56.99866485595703,-16.74452340621809,-10.78248339213196,-35,-102,-332,8,7,7,9,
708,444,-252,-96,702,752.0133056640625,21.011756896972656,69.14227294921875,-19.578646816976466,-7.334238518493551,-30,111,-222,11,7,8,10,
709,444,-223,-72,712,749.5712280273438,18.215421676635742,72.10311126708984,-17.307714382498048,-5.5120397586463605,40,13,1156,8,9,9,10,
710,433,-236,-124,706,754.6575317382812,20.68503761291504,62.27802658081055,-18.223506348727135,-9.457324184116422,-158,-51,830,7,8,10,7,
711,433,-216,-102,701,740.58154296875,18.814924240112305,64.71887969970703,-16.9575250405192,-7.916489389967559,-136,-98,1264,12,11,11,11,
712,433,-212,-78,713,747.928466796875,17.577190399169922,69.79693603515625,-16.46619388239889,-5.986149486242048,40,-231,-309,9,8,10,11,
713,433,-221,-106,778,815.6966552734375,17.48470687866211,64.37244415283203,-15.719856342891827,-7.466718767221817,-221,-238,-483,9,8,8,8,
714,433,-234,-144,762,810.022216796875,19.825960159301758,58.38890838623047,-16.790972805931094,-10.24006436049561,-245,128,-571,8,8,7,9,
715,444,-225,-156,756,804.0503540039062,19.90609359741211,55.26146697998047,-16.250250677299217,-11.187345804708166,-153,83,-783,7,6,9,8,
716,444,-243,-90,708,753.9317016601562,20.100793838500977,69.6736068725586,-18.80270368010219,-6.855987815287227,38,-163,1060,7,9,7,6,
717,444,-217,-107,714,753.8792724609375,18.71738052368164,63.749237060546875,-16.72895247873298,-8.159689166426595,-119,-241,562,6,7,7,6,
718,444,-210,-111,723,761.01904296875,18.185060501098633,62.13688278198242,-16.0183846834894,-8.386912643423237,-59,-163,712,6,5,8,6,
719,444,-207,-105,722,758.3917236328125,17.819368362426758,63.10032272338867,-15.839647577961005,-7.958215186709128,-163,-350,862,9,10,11,10,
720,441,-213,-87,714,750.156005859375,17.859121322631836,67.77909088134766,-16.495554264997942,-6.65991547505295,-220,-181,-333,7,10,8,8,
721,441,-213,-77,723,757.6456909179688,17.39180564880371,70.12171936035156,-16.327899786671463,-5.833076433426819,-120,115,-466,6,8,8,8,
722,441,-223,-111,754,794.0818481445312,18.27984619140625,63.53437805175781,-16.309596927994985,-8.035351923368813,68,-195,-503,6,8,8,9,
723,441,-219,-106,727,766.6328735351562,18.50168228149414,64.16876220703125,-16.598588360513066,-7.947575066060531,-42,-158,-576,7,6,7,6,
724,441,-170,-105,696,724.1139526367188,16.015892028808594,58.294979095458984,-13.578046731523084,-8.33755736725994,19,113,1043,10,10,10,11,
725,442,-210,-113,703,742.3462524414062,18.735904693603516,61.712032318115234,-16.432576691735544,-8.755604632071757,-172,-42,1571,9,13,12,8,
726,442,-207,-115,717,755.0913696289062,18.274429321289062,60.941890716552734,-15.91071098153907,-8.760206436848511,-165,-316,343,5,11,8,7,
727,442,-206,-92,714,748.79638671875,17.53339958190918,65.9310073852539,-15.968460620001014,-7.057412136631235,-17,-177,-278,8,7,9,12,
728,442,-216,-66,750,783.2700805664062,16.757221221923828,73.00601959228516,-16.007724749379502,-4.833595493868957,72,-96,-755,7,8,6,4,
729,442,-220,-72,737,772.4979248046875,17.4346866607666,71.87494659423828,-16.54632136436759,-5.3479658168552735,7,33,-492,8,9,8,6,
730,455,-209,-160,813,854.5466918945312,17.93749237060547,52.56037521362305,-14.156667073161987,-10.791394451107402,-78,141,345,8,10,10,10,
731,455,-223,-134,762,805.1887817382812,18.848926544189453,58.994903564453125,-16.078474584390918,-9.579769752519935,176,-140,1379,10,13,8,8,
732,455,-210,-69,705,738.8410034179688,17.406116485595703,71.8077621459961,-16.512764970314887,-5.35863361470728,-73,122,918,8,8,10,9,
733,455,-182,-116,724,755.4839477539062,16.597124099731445,57.48447036743164,-13.939971186496285,-8.832360657739706,-199,-131,129,8,9,8,10,
734,455,-225,-102,723,764.0405883789062,18.862586975097656,65.6102523803711,-17.12677688822117,-7.671935231768155,212,-187,-104,8,11,10,10,
735,455,-219,-95,682,722.57177734375,19.289260864257812,66.54593658447266,-17.642933978322315,-7.554825091598624,-53,-195,-384,10,11,10,10,
736,455,-207,-55,734,764.6110229492188,16.265140533447266,75.1171875,-15.707466341852259,-4.124962529970123,-33,71,-133,9,11,9,10,
737,455,-221,-111,756,795.4231567382812,18.112302780151367,63.32789611816406,-16.1313036116277,-8.02171284332643,-45,-232,-85,8,10,8,6,
738,455,-229,-123,761,804.1710205078125,18.85703468322754,61.75547409057617,-16.5448202102169,-8.798069738008738,-205,17,83,8,12,9,7,
739,455,-205,-123,717,755.8062133789062,18.43780517578125,59.03267288208008,-15.737683716560172,-9.365979262760646,48,204,1537,10,13,11,10,
740,460,-222,-88,693,732.9918212890625,19.011674880981445,68.3735122680664,-17.629962850070445,-6.895329368960976,-59,-298,857,8,13,12,12,
741,460,-209,-81,746,778.9467163085938,16.721546173095703,68.81239318847656,-15.56378813464253,-5.9687818120877045,-173,-107,744,8,10,6,6,
742,460,-223,-117,756,796.8400268554688,18.421194076538086,62.312164306640625,-16.251576259075485,-8.443263485088895,-474,360,-67,7,12,7,8,
743,460,-262,-116,753,805.6730346679688,20.83074378967285,66.11536407470703,-18.97732664943035,-8.278160219281723,-368,225,-1652,7,13,7,8,
744,460,-187,-111,722,754.0384521484375,16.759864807128906,59.30379867553711,-14.3590733407411,-8.465122635668038,69,-122,-937,7,9,9,8,
745,462,-245,-68,750,791.9273681640625,18.725357055664062,74.4848403930664,-18.02137603553864,-4.92585139540501,88,-287,930,10,8,8,9,
746,462,-235,-133,778,823.5277709960938,19.13861656188965,60.48846435546875,-16.580231765466493,-9.293990919770389,-44,-87,1359,11,15,15,13,
747,462,-230,-144,774,820.1902465820312,19.318256378173828,57.94624710083008,-16.285437541415458,-10.111773711190118,-136,27,131,10,16,9,10,
748,462,-199,-107,753,786.1672973632812,16.700044631958008,61.730106353759766,-14.662616873029757,-7.822426019513246,63,-99,378,10,12,8,12,
749,475,-281,-99,731,789.3814086914062,22.172054290771484,70.5887451171875,-20.853208208801977,-7.2047024728328655,158,-60,588,8,6,9,8,
750,475,-228,-134,685,734.278564453125,21.10832405090332,59.55286407470703,-18.089899604036013,-10.514948501397594,14,-253,-738,8,8,8,9,
751,475,-209,-112,748,784.6840209960938,17.58662986755371,61.81032180786133,-15.447141003022535,-8.206001826348349,-34,-330,-626,8,8,7,8,
752,475,-244,-96,681,729.73486328125,21.05620765686035,68.5199203491211,-19.534111484828948,-7.559437472229934,50,-334,540,11,7,10,8,
753,475,-219,-102,723,762.2952270507812,18.47479820251465,65.02269744873047,-16.695797854923423,-7.689607054479758,-113,95,112,7,7,11,9,
754,465,-198,-106,738,771.4168701171875,16.92392349243164,61.8339958190918,-14.872596090424272,-7.897972211012858,-164,-303,402,8,8,9,8,
755,465,-198,-107,750,783.0408935546875,16.701438903808594,61.60954666137695,-14.646838673100827,-7.853855020235936,-136,-203,50,11,12,7,8,
756,465,-208,-89,706,741.3642578125,17.766172409057617,66.83132934570312,-16.293858504510602,-6.894927339640038,-31,-256,-65,8,10,9,10,
757,465,-199,-83,707,739.1474609375,16.958097457885742,67.35636901855469,-15.61839805789063,-6.447429029967708,-99,-211,-393,7,15,9,11,
758,465,-191,-84,753,781.3744506835938,15.48577880859375,66.2572021484375,-14.148804985504253,-6.171387334487885,-155,-11,324,6,12,8,9,
759,464,-242,-129,754,802.322265625,19.984628677368164,61.93631362915039,-17.55519685515232,-9.252363238150695,50,8,824,12,9,11,10,
760,464,-219,-106,689,730.6968994140625,19.447404861450195,64.16876220703125,-17.440417982858428,-8.341158141396606,-27,-346,-160,11,10,12,10,
761,464,-221,-93,681,721.9771728515625,19.394380569458008,67.17460632324219,-17.824587811890908,-7.401002144204198,-172,-235,-154,10,8,7,12,
762,464,-193,-96,765,794.789306640625,15.734282493591309,63.55038833618164,-14.053727684507074,-6.93750929533969,-276,-181,662,11,9,10,9,
763,464,-194,-158,762,802.0249633789062,18.17528533935547,50.83567428588867,-13.99798316399007,-11.361660999364338,-245,-291,669,11,9,17,12,
764,456,-215,-121,760,799.0406494140625,17.98228645324707,60.62607955932617,-15.609092191697817,-8.709898417760307,-365,23,378,9,8,9,12,
765,456,-230,-125,765,808.548095703125,18.888160705566406,61.4733772277832,-16.52660341115826,-8.893488326768743,-152,86,-401,8,8,11,7,
766,456,-237,-102,700,746.0382080078125,20.231643676757812,66.7105941772461,-18.5225642853583,-7.8582193909774425,15,-433,-967,11,11,7,7,
767,456,-209,-167,702,751.248291015625,20.859342575073242,51.369834899902344,-16.15302074633628,-12.843963831857797,-76,-170,611,19,7,13,10,
768,456,-225,-126,744,787.4242553710938,19.11473846435547,60.74766159057617,-16.603192222902955,-9.207789248020937,-112,-468,937,7,10,10,13,
769,475,-209,-150,766,808.045166015625,18.56222152709961,54.329158782958984,-14.989908123739076,-10.698050772314307,-128,189,132,8,9,8,10,
770,475,-255,-58,716,762.2630615234375,20.06222915649414,77.18299102783203,-19.543970600102156,-4.363808633846879,100,-70,-296,8,6,8,9,
771,475,-226,-105,725,766.6328735351562,18.967037200927734,65.07695770263672,-17.14528066350956,-7.872120253059071,-48,208,-387,6,10,10,9,
772,475,-225,-193,696,756.49853515625,23.067813873291016,49.37388610839844,-17.30288355126558,-14.780860274201125,71,-187,-179,8,9,11,11,
773,475,-237,-128,711,760.311767578125,20.746749877929688,61.62372970581055,-18.162568317286706,-9.692014013860852,27,-431,428,13,11,17,14,
774,461,-219,-51,711,745.709716796875,17.547874450683594,76.88775634765625,-17.078398595842526,-3.921589580139803,-152,-367,257,12,10,7,8,
775,461,-206,-87,781,812.3829345703125,15.975436210632324,67.10087585449219,-14.689163784361519,-6.147729559578397,-213,116,209,10,9,9,11,
776,461,-217,-149,711,758.1629028320312,20.313751220703125,55.52143096923828,-16.631678142331683,-11.33398039277489,122,32,-955,12,10,11,13,
777,461,-213,-95,731,767.3037109375,17.69312858581543,65.95932006835938,-16.116744249875044,-7.112049488432491,80,-342,619,9,9,14,12,
778,461,-228,-61,694,733.0354614257812,18.780302047729492,75.0185775756836,-18.121641173984862,-4.773423775959165,46,-220,1360,7,6,8,9,
779,473,-216,-53,744,776.5313720703125,16.64105796813965,76.21062469482422,-16.15042059756252,-3.913607314925641,-138,-37,175,11,9,10,9,
780,473,-224,-126,738,781.4703979492188,19.198396682739258,60.63873291015625,-16.656852347696162,-9.278558966165345,-4,0,-71,7,6,8,11,
781,473,-209,-201,783,834.9676513671875,20.3190860748291,46.11387634277344,-14.49580355895923,-13.929504707978829,-151,3,-58,9,8,7,7,
782,473,-237,-110,720,765.9432373046875,19.94344139099121,65.09894561767578,-18.02442618236812,-8.257014527373105,-60,-147,-895,10,11,14,17,
783,473,-230,-84,741,780.408203125,18.28372573852539,69.93368530273438,-17.14060117163935,-6.179057713593952,-35,183,-261,10,9,13,11,
784,477,-222,-69,738,773.7499389648438,17.482698440551758,72.73103332519531,-16.673315096807993,-5.116210230090422,-59,210,961,13,10,11,10,
785,477,-213,-140,777,817.7395629882812,18.159645080566406,56.680355072021484,-15.098197021170622,-9.857809271927989,-248,-227,403,14,11,10,9,
786,477,-214,-128,723,764.79345703125,19.026968002319336,59.11148452758789,-16.24911094497331,-9.634676114586991,-120,-103,576,6,10,12,10,
787,477,-234,-87,727,768.6702880859375,18.950227737426758,69.60186767578125,-17.723382153681833,-6.498803710067493,-29,188,-291,12,7,8,7,
788,483,-224,-120,731,773.9102172851562,19.166934967041016,61.817928314208984,-16.82438862703616,-8.920087532769609,40,-141,-550,11,8,8,10,
789,483,-204,-152,713,757.0264282226562,19.634531021118164,53.30653762817383,-15.633052705428236,-11.582902233606877,-12,-359,259,8,10,10,9,
790,483,-203,-111,703,740.0939331054688,18.214860916137695,61.326744079589844,-15.919678344171764,-8.625823512816913,-150,-247,518,14,12,14,16,
791,483,-238,-90,751,792.9344482421875,18.714935302734375,69.28255462646484,-17.466668199680214,-6.517256210455813,-103,23,866,8,9,12,13,
792,483,-234,-103,732,775.36376953125,19.250703811645508,66.23894500732422,-17.5653761103785,-7.633786348258552,-62,-152,-52,9,9,15,12,
793,493,-226,-139,701,749.5318603515625,20.729312896728516,58.40306091308594,-17.549013372420514,-10.687316424499036,-79,-160,415,9,10,10,9,
794,493,-228,-132,719,765.7473754882812,20.121639251708984,59.927879333496094,-17.322413163856183,-9.926262082923557,-73,-382,221,7,8,10,9,
795,493,-229,-54,685,724.2803344726562,18.95423698425293,76.72854614257812,-18.43181757040452,-4.275755622771045,-103,-152,-377,13,10,12,11,
796,493,-196,-87,736,766.6035766601562,16.24184799194336,66.061279296875,-14.813480435057347,-6.51640005574991,-521,-280,-378,16,10,13,11,
797,493,-202,-101,776,808.1961669921875,16.22464942932129,63.431514739990234,-14.473921958874092,-7.179003919238893,-403,83,261,9,10,7,9,
798,485,-228,-144,734,781.9692993164062,20.170921325683594,57.72074890136719,-16.95206561189031,-10.611605811750241,-55,-259,-1165,7,8,10,7,
799,485,-218,-84,675,714.286376953125,19.089111328125,68.92400360107422,-17.770180259867757,-6.753605804402435,-89,-12,1565,17,10,8,11,
800,485,-214,-52,709,742.4156494140625,17.253511428833008,76.33930206298828,-16.75310933394265,-4.01637812548791,-193,-404,815,18,9,7,10,
801,485,-241,-142,813,859.7755737304688,18.984338760375977,59.4893684387207,-16.27845151551154,-9.506493493126026,-22,106,504,7,10,10,12,
802,485,-242,-147,766,816.6572265625,20.284543991088867,58.720333099365234,-17.2373048398819,-10.369881202342151,-168,-39,-501,9,9,10,8,
803,484,-229,-157,760,809.129150390625,20.06670379638672,55.56219482421875,-16.440550288469545,-11.188401478440582,-65,-213,-944,13,6,7,9,
804,484,-287,-95,722,782.7374877929688,22.717952728271484,71.68172454833984,-21.509893108515012,-6.971113016024998,212,-34,-856,17,8,15,8,
805,484,-267,-142,724,784.6203002929688,22.668119430541992,61.990901947021484,-19.894664672098163,-10.426804153499862,115,124,56,13,5,11,14,
806,484,-237,-85,663,709.1988525390625,20.792787551879883,70.26640319824219,-19.522675922866483,-6.883650687142341,-37,-250,844,10,9,12,13,
807,484,-227,-87,708,748.5733032226562,18.94846534729004,69.02690124511719,-17.652520594092156,-6.674060191966587,-63,70,1099,10,7,12,11,
808,495,-246,-87,743,787.4859008789062,19.348461151123047,70.52019500732422,-18.203114466533236,-6.342880835617748,-350,117,-299,10,9,9,11,
809,495,-269,-122,726,783.7863159179688,22.136913299560547,65.600830078125,-20.07230861365278,-8.954766822714646,-75,2,-798,14,7,9,9,
810,495,-203,-147,714,756.712646484375,19.340503692626953,54.08655548095703,-15.561088576907178,-11.201575679536209,341,-403,-745,7,11,8,8,
811,495,-261,-68,729,777.2940063476562,20.301231384277344,75.39391326904297,-19.619992948718863,-5.018821383392191,217,68,-571,8,8,6,6,
812,495,-219,-77,739,774.603759765625,17.436935424804688,70.62519073486328,-16.42292027117779,-5.704946852365219,-26,-87,801,10,10,13,13,
813,506,-222,-155,768,814.3297729492188,19.417884826660156,55.073631286621094,-15.820042653805487,-10.972660452107796,-122,56,1221,10,12,15,17,
814,506,-200,-159,789,829.3383178710938,17.94135856628418,51.511512756347656,-13.954785233263944,-11.05312659281177,-105,-302,-50,12,9,9,13,
815,506,-237,-72,735,775.6146240234375,18.621734619140625,73.09820556640625,-17.792106611346078,-5.326413517084727,-66,11,525,13,6,11,10,
816,506,-225,-116,714,757.5466918945312,19.519424438476562,62.722930908203125,-17.278188562530772,-8.808119214586453,-211,-217,-318,7,8,9,10,
817,506,-231,-119,746,789.9607543945312,19.20237922668457,62.741207122802734,-17.002868922147233,-8.664040147659906,-285,-307,118,9,10,13,9,
818,503,-209,-156,759,802.5571899414062,18.961183547973633,53.2581787109375,-15.09484172725404,-11.208429956098767,-383,-104,-796,9,7,6,8,
819,503,-219,-126,783,822.755126953125,17.881818771362305,60.082820892333984,-15.437011034025398,-8.809169379858156,-108,-90,-969,9,8,9,8,
820,503,-209,-72,699,733.1207275390625,17.547088623046875,70.98807525634766,-16.563789072486504,-5.63612037854234,-140,-72,11,12,7,10,11,
821,503,-234,-98,654,701.4812622070312,21.199708938598633,67.27257537841797,-19.48620044696187,-8.030739643013991,-19,258,1082,15,8,11,10,
822,503,-235,-129,742,788.9423217773438,19.862289428710938,61.23252487182617,-17.329543898922562,-9.410691187298353,-1,-339,661,10,8,8,11,
823,506,-249,-107,763,809.7030029296875,19.552894592285156,66.7425537109375,-17.90984675515533,-7.593689282007047,9,-187,144,10,8,10,10,
824,506,-221,-62,733,768.09765625,17.385324478149414,74.32579040527344,-16.721734190002636,-4.629889509398592,-71,-104,-264,8,7,8,10,
825,506,-219,-75,673,711.6986694335938,18.97918128967285,71.09221649169922,-17.92154941212771,-6.049157076369636,-60,75,-967,9,10,11,8,
826,506,-266,-152,720,782.470458984375,23.048168182373047,60.251583099365234,-19.873763332643378,-11.20129588665783,304,35,-189,12,9,9,13,
827,506,-225,-111,696,739.8391723632812,19.820877075195312,63.737911224365234,-17.70523787182577,-8.628816210155449,-215,-570,1454,12,9,14,11,
828,509,-214,-86,721,756.9894409179688,17.736331939697266,68.10302734375,-16.421343454500317,-6.523338915813091,81,-780,342,18,10,14,9,
829,509,-267,-57,728,777.5101318359375,20.555130004882812,77.94620513916016,-20.08439348470046,-4.2041792132281905,257,2,1614,11,12,10,14,
830,509,-233,-177,737,792.9608764648438,21.65217399597168,52.77387619018555,-17.087717109647784,-12.89787892231568,261,-279,-390,9,11,9,14,
831,509,-200,-111,711,746.88818359375,17.831520080566406,60.96620559692383,-15.532069161794638,-8.546766060175685,42,-419,-1387,12,9,8,12,
832,511,-249,-70,756,799.0225219726562,18.885393142700195,74.29490661621094,-18.15753535272802,-5.025956818153067,36,-153,-397,12,9,12,8,
833,511,-222,-82,716,754.09814453125,18.288198471069336,69.72406005859375,-17.12104615198844,-6.242638932871065,56,-203,20,13,16,14,19,
834,511,-216,-131,750,791.4019165039062,18.61281394958496,58.7603874206543,-15.838894800547806,-9.527968834910903,-89,-362,765,12,12,11,12,
835,511,-205,-195,747,798.7859497070312,20.742460250854492,46.428157806396484,-14.870752906937897,-14.12986202473081,-257,-4,1132,12,9,10,12,
836,511,-250,-78,735,780.2621459960938,19.609251022338867,72.66891479492188,-18.687427895256345,-5.737235884742641,82,-247,-430,17,10,10,10,
837,516,-240,-106,713,759.7401123046875,20.200292587280273,66.16719818115234,-18.41500400855999,-8.020152638008607,162,3,471,13,9,8,10,
838,516,-229,-126,700,747.2061157226562,20.473234176635742,61.176090240478516,-17.84692558177792,-9.708067365877517,297,-313,-620,7,10,9,10,
839,516,-230,-79,687,728.77294921875,19.491230010986328,71.0403060913086,-18.396977702654052,-6.223170915510243,365,-231,-568,14,8,9,11,
840,516,-227,-52,722,758.6283569335938,17.87488555908203,77.09455871582031,-17.411015407947,-3.9304073702569773,-183,186,1327,11,6,8,7,
841,516,-202,-101,717,751.7273559570312,17.481407165527344,63.431514739990234,-15.587783466869391,-7.721452983923075,-174,-464,-1812,12,8,11,12,
842,514,-241,-156,732,786.2830200195312,21.41263198852539,57.08127212524414,-17.848755780672818,-11.443518563448825,8,-674,1594,15,12,9,10,
843,514,-249,-115,742,791.0689086914062,20.284318923950195,65.2068862915039,-18.346566492981506,-8.35887508067516,144,-339,671,10,13,10,9,
844,514,-225,-108,750,790.4359741210938,18.403789520263672,64.35558319091797,-16.538110414989024,-7.853085619351438,-45,-331,-101,8,6,5,8,
845,514,-220,-88,749,785.5857543945312,17.552709579467773,68.19529724121094,-16.2629385882529,-6.431676131656656,-173,-49,228,5,5,5,6,
846,514,-223,-152,777,822.5338745117188,19.151588439941406,55.71743392944336,-15.730534306482994,-10.649170044724885,35,-88,-561,10,7,5,5,
847,522,-249,-175,804,859.675537109375,20.731552124023438,54.89632797241211,-16.836654027554843,-11.745518797239967,-112,-301,339,19,9,10,12,
848,522,-240,-109,745,790.2568969726562,19.482486724853516,65.57066345214844,-17.67989175549076,-7.928071893269925,-77,-195,-392,7,9,8,8,
849,522,-217,-96,775,810.51220703125,17.021202087402344,66.1322250366211,-15.52934858026219,-6.80228818151338,-199,-513,806,8,6,9,13,
850,522,-237,-144,712,764.10009765625,21.27842903137207,58.71376419067383,-18.069401983093105,-10.862748855351784,51,-179,854,7,7,12,13,
851,522,-201,-94,777,808.0631103515625,15.935990333557129,64.93291473388672,-14.403138667630708,-6.680201835484178,-300,-31,-496,10,8,7,9,
852,527,-225,-84,763,799.90625,17.470239639282227,69.52445983886719,-16.336790980199826,-6.027875610679066,-544,174,-225,9,12,8,8,
853,527,-273,-70,712,765.7499389648438,21.59316635131836,75.61553192138672,-20.886215980388876,-5.24493864757618,213,444,125,9,7,6,6,
854,527,-227,-156,713,764.3519897460938,21.11979866027832,55.49850845336914,-17.27651991727612,-11.776493869340358,61,-233,149,11,8,11,10,
855,527,-241,-120,739,786.5125732421875,20.014976501464844,63.52668762207031,-17.84337176494955,-8.776022474311363,65,-524,-98,9,7,8,9,
856,527,-227,-86,704,744.6751098632812,19.02250099182129,69.247314453125,-17.747992353211103,-6.631692561753619,-108,-211,248,6,6,9,10,
857,543,-224,-98,752,790.7490234375,18.00889015197754,66.36727142333984,-16.455807931411165,-7.11914956046409,32,-162,46,7,7,7,6,
858,543,-222,-135,765,807.9195556640625,18.75746726989746,58.69230270385742,-15.948894143718475,-9.619008067395429,74,-144,-280,14,9,8,11,
859,543,-232,-124,732,777.8328857421875,19.764848709106445,61.8727912902832,-17.353399606344055,-9.17307446420237,68,-198,280,6,5,6,5,
860,543,-204,-94,687,722.7869873046875,18.10307502746582,65.25711059570312,-16.39399060905082,-7.4726059482133875,-79,-10,35,5,6,7,9,
861,543,-219,-82,741,777.0238037109375,17.512758255004883,69.46936798095703,-16.37032980970048,-6.057753209370426,-44,-211,-396,8,11,9,9,
862,530,-219,-70,743,777.7595825195312,17.19209861755371,72.2711410522461,-16.354407775724287,-5.163728082626822,-172,90,297,8,5,6,6,
863,530,-208,-117,750,787.0533447265625,17.648813247680664,60.63873291015625,-15.32398873711912,-8.54903272853833,18,192,599,8,6,8,7,
864,530,-221,-151,746,792.564208984375,19.735599517822266,55.653175354003906,-16.191089907295368,-10.983181687602876,-37,-19,-627,7,7,9,8,
865,530,-232,-65,710,749.7659912109375,18.7421875,74.34547424316406,-18.02487641468778,-4.97342742745059,67,-222,-310,13,8,8,8,
866,530,-231,-106,721,764.4854736328125,19.415958404541016,65.3474349975586,-17.587625945456814,-7.970044820922366,106,-114,304,7,6,6,6,
867,526,-223,-122,742,784.3322143554688,18.908098220825195,61.31409454345703,-16.518104588875367,-8.948483320487624,116,-321,148,9,7,5,9,
868,526,-213,-137,759,800.1368408203125,18.45014762878418,57.24755096435547,-15.438534171494947,-9.858801160342004,5,-379,-31,11,6,7,9,
869,526,-211,-100,777,811.3260498046875,16.723957061767578,64.63874816894531,-15.074100741633181,-7.079995708698766,-6,-174,455,7,5,7,6,
870,526,-216,-121,764,803.1145629882812,17.953338623046875,60.73957443237305,-15.601968508423429,-8.665375632264817,-31,-50,242,7,6,4,6,
871,526,-233,-213,772,834.0515747070312,22.238658905029297,47.563697814941406,-16.221965228572103,-14.796096937707258,95,22,-350,8,7,6,7,
872,539,-222,-143,730,776.2943725585938,19.885007858276367,57.20899963378906,-16.617076838226374,-10.614987663460864,57,-152,-16,8,6,9,11,
