step,tof,accX,accY,accZ,acc,incl,orient,roll,pitch,gyroX,gyroY,gyroZ,mic0,mic1,mic2,mic3,
0,28,-225,-81,731,769.1209106445312,18.11263084411621,70.19788360595703,-17.010189734485486,-6.045317572458528,-23,-111,136,6,4,4,4,
1,28,-222,-85,738,775.340576171875,17.85207176208496,69.04573822021484,-16.638113629239903,-6.293943516899761,-51,-123,121,5,3,3,3,
2,28,-224,-83,734,771.8944091796875,18.025537490844727,69.66527557373047,-16.869638345344704,-6.172815440583026,-27,-111,135,1,2,2,2,
3,28,-222,-81,735,772.0557250976562,17.821382522583008,69.95150756835938,-16.71097715594488,-6.022252691815156,-21,-138,154,3,2,3,3,
4,28,-222,-82,733,770.2577514648438,17.891326904296875,69.72406005859375,-16.75113346527624,-6.111167241588176,-25,-90,127,5,2,2,2,
5,28,-223,-83,733,770.6536254882812,17.98226547241211,69.58161163330078,-16.81992900330179,-6.182792814609358,-60,-122,124,4,4,5,4,
6,28,-187,-70,733,759.7091674804688,15.235676765441895,69.47428894042969,-14.249617925282957,-5.286761908632928,202,3269,-1380,30,18,14,12,
7,28,-264,-291,744,841.3756713867188,27.83681869506836,42.21077346801758,-18.286687621378352,-20.23443388794429,33,6611,-219,43,16,13,11,
8,28,-132,-31,891,901.2579956054688,8.650415420532227,76.78063201904297,-8.421946293380282,-1.9711553920640899,-919,-630,986,195,102,72,54,
9,28,-150,-218,827,868.3046875,17.741310119628906,34.52653121948242,-9.947773193535864,-14.540480171462992,-327,61,-1492,83,39,21,20,
10,28,-262,-112,730,783.6376953125,21.319772720336914,66.85088348388672,-19.53229860201985,-8.217034468948794,-168,-345,173,18,12,14,16,
11,28,-216,-85,753,787.9657592773438,17.130495071411133,68.51615905761719,-15.90979295671334,-6.192701148778456,-20,111,1037,8,7,8,6,
12,28,-211,-68,729,761.9619140625,16.912202835083008,72.13399505615234,-16.076270661888977,-5.12007634221824,-70,3,309,10,6,5,7,
13,28,-229,-36,729,764.9692993164062,17.63784408569336,81.06300354003906,-17.419072808455574,-2.6973765306918978,-172,152,-1395,11,7,10,7,
14,28,-222,-127,743,785.7874755859375,18.992679595947266,60.22379684448242,-16.410611826025786,-9.301014972004067,-78,131,1356,16,11,9,12,
15,28,-197,-161,759,800.5067138671875,18.529319763183594,50.738460540771484,-14.246502367046896,-11.602613901042002,-40,-26,267,10,6,7,5,
16,28,-250,-72,705,751.4712524414062,20.2531795501709,73.93047332763672,-19.431566279489363,-5.498060178179036,88,96,-760,6,7,9,8,
17,28,-234,-147,747,796.4760131835938,20.2991886138916,57.85914611816406,-17.085244466940054,-10.635655577182519,-55,-222,573,8,7,8,6,
18,28,-209,-151,717,761.9520874023438,19.777067184448242,54.14863204956055,-15.92003248793872,-11.43026921735578,-238,-159,-139,10,5,7,7,
19,35,-213,-99,708,745.945068359375,18.3514347076416,65.06813049316406,-16.591358399383253,-7.626657662294873,-240,-258,-1005,10,8,8,8,
20,35,-222,-65,761,795.3804321289062,16.905467987060547,73.67721557617188,-16.207196929096508,-4.687547585726171,-156,-472,925,12,7,8,6,
21,35,-270,-183,692,765.018310546875,25.23487091064453,55.8677864074707,-20.666799479320503,-13.83991649290806,504,88,-641,14,13,13,11,
22,35,-222,-97,691,732.239013671875,19.318714141845703,66.39435577392578,-17.64868294083511,-7.612370901729168,-65,9,-149,12,9,9,10,
23,35,-214,-90,726,762.2152099609375,17.730737686157227,67.18696594238281,-16.305605332512805,-6.781127442431063,14,-291,834,8,6,6,6,
24,32,-229,-97,743,783.51708984375,18.504291534423828,67.04008483886719,-16.994018670056988,-7.111505814935977,-53,-209,740,6,6,6,6,
25,32,-228,-106,750,791.024658203125,18.531505584716797,65.06230926513672,-16.752242586683188,-7.700995821359592,-95,-31,-143,18,9,11,10,
26,32,-217,-133,768,809.0747680664062,18.33308219909668,58.492156982421875,-15.557636037176792,-9.461527132958938,13,-38,-8,10,9,8,9,
27,32,-208,-114,734,771.372802734375,17.90610122680664,61.27036666870117,-15.643388727917008,-8.498786369433681,-99,0,306,8,8,8,8,
28,32,-219,-120,727,768.6937255859375,18.9553165435791,61.27616882324219,-16.552806325080343,-8.981119942946235,-181,-579,-207,9,7,8,10,
29,26,-207,-92,765,797.8333129882812,16.492353439331055,66.03414916992188,-15.0375891938086,-6.621638740954526,-193,-261,69,8,9,10,9,
30,26,-241,-82,751,792.972900390625,18.7231388092041,71.20597076416016,-17.69317605956874,-5.935471235339046,-34,16,1231,7,10,9,9,
31,26,-233,-190,789,844.3399658203125,20.85725212097168,50.8006477355957,-16.01894537987283,-13.004515142749083,34,-184,-1343,9,9,9,7,
32,26,-203,-177,764,810.0827026367188,19.416723251342773,48.9102668762207,-14.512528411087791,-12.620723350512323,-219,22,891,7,8,8,10,
33,26,-256,-72,720,767.54150390625,20.26967430114746,74.28824615478516,-19.483321127508844,-5.38260170110208,-13,246,2,8,9,9,8,
34,31,-240,-85,704,748.6260986328125,19.880882263183594,70.49432373046875,-18.698445035684873,-6.5194983306423735,133,135,-1032,11,6,7,6,
35,31,-210,-114,718,756.7166137695312,18.405136108398438,61.50086212158203,-16.111931825536292,-8.664646314952149,-119,-50,744,8,7,6,7,
36,31,-230,-189,801,854.5302734375,20.385601043701172,50.58489990234375,-15.613914210856501,-12.778005249059847,-35,-82,-86,12,7,7,7,
37,31,-228,-69,712,750.792236328125,18.496458053588867,73.15937805175781,-17.67871991150552,-5.273090169864018,-122,272,628,6,6,7,6,
38,31,-251,-119,707,759.6124267578125,21.447856903076172,64.63079071044922,-19.294978647430465,-9.013016402985274,50,-37,53,9,9,8,9,
39,33,-222,-117,707,750.2146606445312,19.53984832763672,62.20608901977539,-17.21243175022519,-8.972208686047683,63,-50,163,9,7,10,8,
40,33,-216,-132,723,766.0346069335938,19.294336318969727,58.566856384277344,-16.377911241389164,-9.922502269658128,-105,-1067,13,13,11,8,11,
41,33,-203,-114,715,751.9508056640625,18.034259796142578,60.67894744873047,-15.662152765119489,-8.719988628932766,75,-626,-1359,8,11,7,7,
42,33,-197,-59,741,769.0065307617188,15.508414268493652,73.32429504394531,-14.843202025426677,-4.400191938651077,-410,-652,390,6,10,10,8,
43,37,-209,-193,749,801.2059936523438,20.79551887512207,47.27531814575195,-15.120905879274684,-13.938890240347002,-38,63,1037,8,9,9,11,
44,37,-237,-71,750,789.7531127929688,18.25433349609375,73.31978607177734,-17.463235788886113,-5.157941166045449,76,-271,335,9,8,10,12,
45,37,-216,-85,714,750.7842407226562,18.007326126098633,68.51615905761719,-16.720258119943296,-6.500676628137481,-66,-240,986,7,9,7,8,
46,37,-198,-82,698,730.1588745117188,17.065996170043945,67.50021362304688,-15.734129992163286,-6.448166850748782,-254,-135,-227,5,8,12,10,
47,37,-207,-80,737,769.6869506835938,16.755630493164062,68.86653137207031,-15.60123070187587,-5.966004451743611,-176,197,-21,9,7,9,9,
48,41,-216,-180,753,803.7816772460938,20.473493576049805,50.19059753417969,-15.588689726268832,-12.940636767651847,-110,-141,-503,7,10,9,6,
49,41,-203,-99,737,770.830078125,17.035552978515625,63.9987907409668,-15.269078990026552,-7.379049358902363,-197,-391,391,8,7,9,10,
50,41,-198,-82,666,699.63134765625,17.835214614868164,67.50021362304688,-16.439705972501056,-6.730798544356315,-199,-556,-60,7,7,9,11,
51,41,-206,-79,765,796.1796264648438,16.085561752319336,69.01514434814453,-14.995049323334674,-5.694477496020731,-158,444,1035,8,6,12,11,
52,41,-221,-135,714,759.5143432617188,19.93387222290039,58.57734680175781,-16.916362187730094,-10.238449669350407,-222,-69,1192,9,8,8,7,
53,45,-204,-206,828,877.2890014648438,19.295183181762695,44.71651840209961,-13.446337082499385,-13.58067639355727,33,-125,-463,9,9,7,10,
54,45,-252,-88,747,793.2572021484375,19.661100387573242,70.74725341796875,-18.522530438597386,-6.369217851618888,-178,221,-405,10,11,14,13,
55,45,-256,-86,714,763.3662109375,20.71628761291504,71.42766571044922,-19.59423177073927,-6.468612349166088,97,139,-1257,8,9,10,11,
56,45,-249,-96,697,746.3417358398438,20.94864273071289,68.91297149658203,-19.489087903105283,-7.390282358011836,372,-46,-290,10,8,10,6,
57,45,-224,-187,793,844.9816284179688,20.199787139892578,50.14031219482422,-15.372568796632136,-12.785786271805513,-6,21,-31,8,7,9,9,
58,49,-200,-57,726,755.1986694335938,15.982266426086426,74.08931732177734,-15.356909972327687,-4.328620303464315,-238,-647,952,16,9,11,14,
59,49,-223,-89,746,783.6874389648438,17.838924407958984,68.23960876464844,-16.53208447549863,-6.520902819957193,-63,17,1603,8,8,11,9,
60,49,-234,-103,706,750.8668212890625,19.904918670654297,66.23894500732422,-18.158081116182363,-7.88439631808429,-60,-172,-447,6,8,8,9,
61,49,-237,-108,716,761.8983154296875,19.98697853088379,65.498046875,-18.12343270107274,-8.14919360084845,115,-154,-655,10,9,11,10,
62,49,-229,-68,737,774.7476806640625,17.956863403320312,73.45842742919922,-17.19232573445399,-5.035359012692723,-41,-109,-174,7,5,8,4,
63,43,-198,-121,713,749.809326171875,18.025310516357422,58.566856384277344,-15.31152949663189,-9.286678192216447,149,-492,-1016,8,7,8,6,
64,43,-211,-147,783,824.1474609375,18.179405212402344,55.1320686340332,-14.834160842168291,-10.274606713687064,-123,-93,408,9,8,12,11,
65,43,-231,-186,794,847.5806884765625,20.47964859008789,51.15536117553711,-15.81549321796708,-12.676621502799922,231,-206,1291,15,8,14,21,
66,43,-198,-66,746,774.645751953125,15.62796688079834,71.56185150146484,-14.809183142952516,-4.8875394190084,109,167,550,7,8,7,9,
67,43,-237,-132,736,784.4036254882812,20.23119354248047,60.88033676147461,-17.58620473598425,-9.687871378487369,-78,-872,82,7,10,10,8,
68,46,-222,-85,704,743.0511474609375,18.655927658081055,69.04573822021484,-17.383629157913727,-6.56862716296199,32,-422,-1064,13,14,11,10,
69,46,-237,-106,759,802.17578125,18.881746292114258,65.89970397949219,-17.184311155075186,-7.59330765888322,14,-46,-331,7,7,8,9,
70,46,-225,-153,762,809.1217651367188,19.648347854614258,55.7806282043457,-16.14560407575218,-10.89991093932343,-210,-250,430,8,8,8,7,
71,46,-230,-88,745,784.645751953125,18.289203643798828,69.05944061279297,-17.045192068678983,-6.439413727573717,-60,157,223,10,9,10,9,
72,46,-251,-98,637,691.6458740234375,22.926546096801758,68.66913604736328,-21.278554707114235,-8.145709461374194,122,-21,292,8,11,11,10,
73,48,-236,-90,728,770.5712280273438,19.13205909729004,69.12208557128906,-17.834364129986877,-6.707253705421259,140,79,619,14,10,11,8,
74,48,-216,-79,711,747.273681640625,17.92317008972168,69.9072265625,-16.801132202700305,-6.068513415932532,3,174,755,11,13,13,12,
75,48,-235,-62,705,745.7171020507812,19.01898956298828,75.21734619140625,-18.368837536918836,-4.769159351899125,-59,-481,132,11,13,14,11,
76,48,-249,-69,765,807.4570922851562,18.660606384277344,74.50838470458984,-17.96135834396989,-4.902100757456146,-82,127,-311,9,9,12,10,
77,48,-257,-127,708,763.833740234375,22.040870666503906,63.699676513671875,-19.66138377265643,-9.570818632688022,320,-82,-1183,10,9,8,9,
78,51,-246,-103,702,750.9520874023438,20.79995346069336,67.27764892578125,-19.122209218897602,-7.883495780940981,286,-168,-446,8,12,12,15,
79,51,-210,-81,707,741.963623046875,17.6572208404541,68.90438842773438,-16.441292311240876,-6.267458923786897,12,-84,1270,14,6,9,7,
80,51,-210,-77,751,783.6006469726562,16.583032608032227,69.8604507446289,-15.544912000789937,-5.639232053823906,-79,214,933,7,9,7,8,
81,51,-216,-139,756,798.444091796875,18.763696670532227,57.23434066772461,-15.695577366351438,-10.025623347203345,1,196,777,8,6,8,6,
82,51,-252,-215,819,883.4534301757812,22.01941680908203,49.52617645263672,-16.573447979722154,-14.085120613730865,-65,-75,-1016,9,8,9,9,
83,51,-237,-96,719,763.115966796875,19.57532501220703,67.94563293457031,-18.09351121771675,-7.2269578360842175,72,-308,-345,7,8,9,10,
84,51,-216,-102,757,793.7940673828125,17.511016845703125,64.71887969970703,-15.789915310245936,-7.3827370760362765,-137,-732,-58,15,9,8,7,
85,51,-218,-87,729,765.8551025390625,17.845077514648438,68.2406234741211,-16.53787798582389,-6.522796178561694,-78,-44,-735,8,8,6,7,
86,51,-209,-165,795,838.4097900390625,18.51593780517578,51.7060546875,-14.434995356376806,-11.349960054575988,-48,85,1372,7,6,11,12,
87,61,-198,-133,801,835.759521484375,16.58036231994629,56.10641098022461,-13.704252246156075,-9.156789768911825,-283,-282,160,11,9,17,15,
88,61,-234,-78,744,783.8214111328125,18.33974838256836,71.56185150146484,-17.369776738409804,-5.711096711450189,167,-292,278,8,10,7,8,
89,61,-249,-118,693,745.770751953125,21.681331634521484,64.64051818847656,-19.50461398713908,-9.10391688213928,-73,-432,685,6,11,7,9,
90,61,-249,-99,728,775.7486572265625,20.205366134643555,68.31441497802734,-18.722216429664844,-7.332004930416502,81,31,-837,11,14,8,8,
91,61,-207,-105,711,747.9271240234375,18.0772762298584,63.10032272338867,-16.067220015337263,-8.070299159922008,-120,-445,-1052,5,5,7,5,
92,64,-237,-129,732,780.1499633789062,20.233070373535156,61.43687438964844,-17.685246230110515,-9.517731096275517,-20,-460,654,7,7,6,9,
93,64,-243,-86,697,743.137939453125,20.293691635131836,70.50741577148438,-19.0862902725223,-6.645471771508948,82,-75,582,7,9,6,7,
94,64,-198,-153,654,700.2349853515625,20.93522834777832,52.30199432373047,-16.42513271748416,-12.62083378156694,-160,-249,555,9,12,10,9,
95,64,-213,-114,755,792.7105102539062,17.74174690246582,61.84033203125,-15.586824713799782,-8.268396710649412,-66,-484,187,7,7,10,8,
96,64,-213,-98,749,784.840087890625,17.379804611206055,65.28974914550781,-15.747166772866242,-7.173028900799592,30,-376,272,10,6,7,8,
97,63,-212,-62,680,714.97412109375,17.992895126342773,73.69515991210938,-17.248359273837742,-4.974733274584707,-258,-272,-578,8,6,8,8,
98,63,-209,-116,764,800.5204467773438,17.371246337890625,60.96516799926758,-15.134164022703386,-8.331820188318497,-68,106,-907,9,8,8,9,
99,63,-207,-174,790,835.0,18.893932342529297,49.94643783569336,-14.353527628160977,-12.02762240875207,-26,-457,140,6,5,8,10,
100,63,-226,-111,726,768.4224243164062,19.125215530395508,63.838592529296875,-17.10412097967786,-8.305535416998028,21,-104,1035,8,7,8,7,
101,63,-215,-116,765,803.0604248046875,17.70835304260254,61.64809799194336,-15.528984367589265,-8.305281652984748,-128,-53,609,7,5,7,8,
102,62,-219,-84,764,799.1951904296875,17.064950942993164,69.01182556152344,-15.90395845519657,-6.033258363816851,-96,-77,-45,11,8,10,8,
103,62,-230,-93,749,789.0183715820312,18.324264526367188,67.9808578491211,-16.947866958077494,-6.769073396352708,34,-135,262,11,9,7,8,
104,62,-244,-131,744,793.8721313476562,20.41493034362793,61.76582717895508,-17.89985886839097,-9.498046298355698,138,-201,24,6,7,6,5,
105,62,-225,-98,727,767.3056640625,18.651214599609375,66.46085357666016,-17.051661663647646,-7.337838477885507,50,9,-453,6,10,9,7,
106,62,-205,-96,720,754.7456665039062,17.450773239135742,64.90325927734375,-15.760372420564506,-7.307541689914884,-94,-169,-554,6,6,7,7,
107,70,-215,-133,723,765.9262084960938,19.271167755126953,58.255279541015625,-16.302338474165904,-9.99987123111563,-50,-431,386,7,6,6,7,
108,70,-233,-124,739,784.7203369140625,19.652618408203125,61.9751091003418,-17.272768898303173,-9.091877157924898,183,47,1307,7,8,13,11,
109,70,-208,-123,748,786.0642700195312,17.90127182006836,59.398658752441406,-15.343745435453087,-9.002395496878195,-15,13,-56,6,8,8,9,
110,70,-216,-132,730,772.6448364257812,19.122791290283203,58.566856384277344,-16.233900896234708,-9.836764437386568,30,-347,-729,11,6,9,9,
111,70,-228,-113,738,780.6388549804688,19.022357940673828,63.63290023803711,-16.981833580362547,-8.32299001777764,36,-345,-382,10,8,10,10,
112,72,-220,-78,733,769.267822265625,17.661531448364258,70.47503662109375,-16.617808713845502,-5.819513025243544,47,151,-109,6,6,6,6,
113,72,-216,-108,743,781.2611694335938,18.003459930419922,63.431514739990234,-16.049996469865757,-7.945901172281171,35,-226,12,9,8,8,7,
114,72,-232,-147,756,804.3438110351562,19.963741302490234,57.63719940185547,-16.764216996929644,-10.530427330671774,-22,-15,386,11,8,9,10,
115,72,-255,-162,723,783.5802612304688,22.675762176513672,57.568824768066406,-18.991588298513143,-11.931571810872063,-92,-83,853,11,9,8,9,
116,72,-228,-128,783,825.5040893554688,18.463966369628906,60.68647384643555,-16.03323367401793,-8.920088911072698,1,-176,-61,13,8,11,7,
117,77,-207,-80,795,825.3932495117188,15.59467601776123,68.86653137207031,-14.524238657010946,-5.56203911382758,-22,-15,-281,7,8,8,10,
118,77,-220,-125,764,804.8111572265625,18.322406768798828,60.39201736450195,-15.864069469997848,-8.935120080768016,75,-173,418,6,11,11,11,
119,77,-244,-132,744,794.0377807617188,20.447019577026367,61.583839416503906,-17.895998811967058,-9.569214623795585,68,-105,51,4,7,8,7,
120,77,-237,-102,719,763.8939819335938,19.73875617980957,66.7105941772461,-18.07444682655383,-7.673416461163827,118,-310,-444,7,8,8,8,
121,78,-208,-57,705,737.2503051757812,17.00740623474121,74.671875,-16.38733645798298,-4.434208902978858,-68,-91,933,13,8,10,7,
122,78,-216,-155,751,796.6693115234375,19.492219924926758,54.333351135253906,-15.73144837846292,-11.219022471968414,-95,-545,927,16,10,12,10,
123,78,-223,-88,708,747.4871215820312,18.704463958740234,68.46158599853516,-17.35750061300887,-6.760984406146982,-3,-413,47,7,12,11,10,
124,78,-231,-89,724,765.1522827148438,18.874622344970703,68.92597961425781,-17.571798873651648,-6.679577066314234,6,-241,-3,12,12,17,12,
125,78,-228,-126,750,793.9521484375,19.151697158813477,61.0700569152832,-16.688661237399874,-9.131432680175802,-7,-231,-52,11,16,10,13,
126,82,-258,-95,735,784.7381591796875,20.506792068481445,69.78218841552734,-19.194262584398615,-6.953252469208157,269,-161,97,14,13,15,10,
127,82,-216,-112,695,736.3593139648438,19.292404174804688,62.58897018432617,-17.057727451268654,-8.748624801729246,-40,-76,363,6,9,9,9,
128,82,-226,-146,708,757.4008178710938,20.805997848510742,57.13319778442383,-17.360862623917793,-11.114162167279527,41,-673,-48,5,9,6,8,
129,82,-236,-66,705,746.3759155273438,19.16515350341797,74.37265014648438,-18.432943139952496,-5.073136755626231,86,-602,150,12,12,9,8,
130,82,-201,-49,741,769.33935546875,15.597482681274414,76.29653930664062,-15.145024964552572,-3.651697880776804,-109,-151,1026,8,11,8,11,
131,81,-206,-141,756,796.1488647460938,18.27128028869629,55.60601806640625,-14.995642514540416,-10.201037357466014,144,70,-222,7,9,9,12,
132,81,-213,-169,792,837.373291015625,18.94571304321289,51.566768646240234,-14.736071148263814,-11.64350051658356,-50,-120,140,4,8,9,8,
133,81,-234,-102,682,728.2059936523438,20.518232345581055,66.44438934326172,-18.743838796492543,-8.051911446563984,24,-638,-315,9,8,12,9,
134,81,-216,-36,726,758.3060302734375,16.782445907592773,80.53474426269531,-16.549609372536338,-2.721096274119673,-120,-416,1168,8,7,10,7,
135,81,-221,-99,738,776.7149047851562,18.164180755615234,65.86598205566406,-16.53085775086584,-7.322834151382804,61,-41,193,10,8,10,7,
136,89,-192,-205,843,888.5595092773438,18.424999237060547,43.120445251464844,-12.47890029273184,-13.338904888935982,-81,95,-608,11,9,12,8,
137,89,-231,-147,770,817.233154296875,19.572948455810547,57.52519226074219,-16.419090601233123,-10.362492502402356,-80,104,56,8,9,9,10,
138,89,-233,-111,715,760.1546020507812,19.845678329467773,64.5237045288086,-17.849429461811756,-8.396519249647552,88,-12,-539,11,8,8,5,
139,89,-211,-127,740,779.9038696289062,18.40534782409668,58.952880859375,-15.696769957742625,-9.37181274733796,-109,-163,227,8,10,13,10,
140,89,-205,-125,699,739.0879516601562,18.95532989501953,58.623409271240234,-16.103234035658758,-9.73708627842994,-12,-318,416,7,7,7,6,
141,91,-245,-143,738,790.64404296875,21.024200439453125,59.72547912597656,-18.05163490043345,-10.420159846272531,93,-230,389,5,9,9,12,
142,91,-217,-71,725,760.1019897460938,17.47832679748535,71.87928771972656,-16.588021654778174,-5.359727410998689,6,-35,228,5,7,8,9,
143,91,-239,-90,705,749.8306274414062,19.910690307617188,69.3619155883789,-18.58666025636113,-6.89366674430862,22,-227,-166,5,8,6,6,
144,91,-219,-130,732,775.0386962890625,19.181772232055664,59.30276107788086,-16.41344324793075,-9.656069377366764,3,-411,-801,7,6,8,6,
145,91,-204,-113,737,773.0161743164062,17.556589126586914,61.01347351074219,-15.301680215524819,-8.405653520887665,-58,-177,140,8,8,9,8,
146,93,-219,-83,753,788.5803833007812,17.2747802734375,69.2402572631836,-16.123830805657516,-6.041710308083328,-96,-78,-15,8,6,6,7,
147,93,-223,-91,757,794.3922119140625,17.647235870361328,67.79771423339844,-16.30304717532657,-6.577842579453861,-92,43,395,6,10,7,7,
148,93,-261,-119,746,799.2484130859375,21.03047752380371,65.4865493774414,-19.059920035334294,-8.562599120223313,-54,170,825,6,7,7,7,
149,93,-222,-102,730,769.79736328125,18.501888275146484,65.31976318359375,-16.76144720762683,-7.614220485807133,-29,-245,162,4,6,8,4,
150,93,-211,-112,719,757.64501953125,18.376598358154297,62.03691101074219,-16.17037423806677,-8.500988936020462,3,-291,-411,6,7,8,5,
151,98,-218,-69,745,779.3009643554688,17.060409545898438,72.43353271484375,-16.24456112702125,-5.079671017389451,-38,-162,-262,6,9,7,6,
152,98,-226,-95,738,777.6535034179688,18.373777389526367,67.19702911376953,-16.89494983503015,-7.016915780945942,64,-226,303,6,6,7,7,
153,98,-230,-139,723,771.3300170898438,20.388086318969727,58.849853515625,-17.348697132571235,-10.381887510075803,171,-4,49,6,9,8,10,
154,98,-214,-117,714,754.5071411132812,18.857566833496094,61.329803466796875,-16.476906740768502,-8.920746915189174,-113,24,489,6,7,10,14,
155,98,-232,-57,702,741.5369262695312,18.791996002197266,76.19336700439453,-18.23189670910867,-4.408525108913704,54,-25,959,8,10,11,15,
156,98,-225,-115,709,752.6825561523438,19.613847732543945,62.92446517944336,-17.393396404176492,-8.788463780998796,-34,-267,288,7,5,7,8,
157,98,-252,-141,739,793.4141235351562,21.3410701751709,60.76842498779297,-18.518733641841195,-10.236576233348863,174,-20,-244,8,8,7,5,
158,98,-256,-123,731,784.2359619140625,21.230642318725586,64.33375549316406,-19.052377716119718,-9.02355810258329,184,-195,-573,6,12,9,8,
159,98,-216,-69,729,763.4513549804688,17.275997161865234,72.2810287475586,-16.434896390403647,-5.185413183122136,-138,-178,-471,5,4,7,6,
160,98,-222,-119,749,790.2189331054688,18.58528709411621,61.8036003112793,-16.316004056814393,-8.661187467672256,-34,-193,265,8,6,7,6,
161,103,-225,-132,701,747.9639282226562,20.409616470336914,59.59772491455078,-17.506659963755713,-10.16474436543598,50,-455,742,8,7,9,7,
162,103,-204,-102,735,769.5745849609375,17.23756980895996,63.431514739990234,-15.371797283561067,-7.616438139099014,-58,-78,865,5,11,6,7,
163,103,-222,-87,774,809.8944091796875,17.119840621948242,68.59690856933594,-15.908970918555921,-6.1666922032500855,-30,-147,537,5,8,9,8,
164,103,-219,-84,721,758.1939086914062,18.018712997436523,69.01182556152344,-16.78877952912789,-6.360834566280125,-46,-219,-316,7,10,6,5,
165,104,-216,-120,715,756.4925537109375,19.06241798400879,60.941890716552734,-16.59042736144816,-9.127200177117162,2,-345,-438,5,6,8,8,
166,104,-218,-101,735,773.2722778320312,18.099660873413086,65.13818359375,-16.374758913141658,-7.505060707849773,-2,-403,-618,8,8,9,8,
167,104,-210,-87,717,752.1688842773438,17.587873458862305,67.49315643310547,-16.2120239979893,-6.642012487283664,-10,-376,250,6,7,9,11,
168,104,-222,-72,764,798.8516845703125,16.98451042175293,72.02767944335938,-16.13484429076139,-5.171049817973805,-16,133,1077,8,8,9,10,
169,104,-234,-114,762,805.2304077148438,18.857593536376953,64.02217864990234,-16.89388392002968,-8.138959448407567,38,200,734,6,7,8,6,
170,110,-246,-122,727,777.128662109375,20.68968963623047,63.61814880371094,-18.454404529125597,-9.03212103334251,54,-273,334,7,7,7,8,
171,110,-246,-126,724,774.9631958007812,20.892593383789062,62.875247955322266,-18.507840088496987,-9.35716596178537,134,-17,-603,6,8,8,7,
172,110,-212,-83,735,769.4530639648438,17.208389282226562,68.61590576171875,-15.993028005402362,-6.192477443334862,-56,-191,237,6,7,7,7,
173,110,-207,-115,764,799.8562622070312,17.21851921081543,60.941890716552734,-14.998663093330329,-8.26639705074955,-135,-166,-357,8,12,12,9,
174,110,-229,-128,744,788.8986206054688,19.421306610107422,60.793399810791016,-16.87460721879817,-9.337606954534543,78,0,482,7,8,10,9,
175,113,-227,-162,727,778.6539916992188,20.984838485717773,54.48250198364258,-16.949500884557267,-12.00818009758443,-153,120,900,8,7,12,8,
176,113,-206,-42,706,736.6383056640625,16.580703735351562,78.47328186035156,-16.23924354258633,-3.2685354757207707,-262,190,734,7,9,9,11,
177,113,-194,-120,738,772.4506225585938,17.174100875854492,58.25727462768555,-14.54549861871026,-8.937080059556212,-220,237,1324,6,8,9,10,
178,113,-210,-111,714,752.4739379882812,18.39896011352539,62.13688278198242,-16.205270490637528,-8.482852885746167,-97,-295,-586,9,9,8,9,
179,113,-228,-113,722,765.530517578125,19.41272735595703,63.63290023803711,-17.327474415012006,-8.488450720909062,-179,-140,-463,6,8,8,8,
180,118,-249,-59,728,771.6644287109375,19.364669799804688,76.66668701171875,-18.825024262003616,-4.385006137265492,52,228,-1402,8,10,9,7,
181,118,-224,-131,723,768.1575317382812,19.74162483215332,59.67643737792969,-16.954180351723295,-9.819097202617577,52,-208,178,10,8,8,8,
182,118,-235,-108,685,732.1980590820312,20.682523727416992,65.31432342529297,-18.720471885370365,-8.48213776847485,176,218,990,8,9,10,7,
183,118,-219,-73,704,740.8818969726562,18.15254020690918,71.56185150146484,-17.193139675552825,-5.654598010537911,-1,-290,328,7,7,9,8,
184,118,-210,-81,725,759.135009765625,17.245075225830078,68.90438842773438,-16.059212445306674,-6.1251418423594695,-149,-17,591,6,8,8,10,
185,117,-225,-84,753,790.3733520507812,17.687904357910156,69.52445983886719,-16.53945848400739,-6.100853871662033,-160,-43,269,5,13,10,10,
186,117,-227,-136,747,792.4859619140625,19.504453659057617,59.06981658935547,-16.64496777288673,-9.881549973411278,-77,-264,-791,9,9,12,11,
187,117,-206,-120,747,784.1205444335938,17.698209762573242,59.774620056152344,-15.231204853803654,-8.80300684134368,47,-227,-845,6,9,11,10,
188,117,-211,-108,711,749.470458984375,18.435285568237305,62.89098358154297,-16.351666677583946,-8.285266393011957,119,-314,-368,7,8,8,8,
189,117,-262,-77,775,821.704345703125,19.408437728881836,73.6191635131836,-18.593360787315145,-5.376943086940702,59,-34,1135,7,11,9,14,
190,124,-235,-141,758,806.0211181640625,19.875377655029297,59.03267288208008,-16.95111325062921,-10.074781700943788,150,-108,1465,11,14,11,11,
191,124,-224,-107,775,813.7874145507812,17.758892059326172,64.46377563476562,-15.977279748163378,-7.555353429488487,229,-198,472,7,11,9,7,
192,124,-219,-133,753,795.3986206054688,18.78974723815918,58.725868225097656,-15.981897653952435,-9.625743777373827,153,-323,-87,10,12,10,8,
193,124,-219,-112,763,801.6694946289062,17.86627197265625,62.910640716552734,-15.853577703539102,-8.030975546925038,-130,-204,-745,9,12,9,9,
194,124,-233,-81,684,727.1217041015625,19.82927894592285,70.82730865478516,-18.689629058607455,-6.395917891228305,137,-467,-767,8,9,10,11,
195,124,-230,-117,744,787.4801635742188,19.126466751098633,63.0343132019043,-16.98197559697194,-8.54436471780033,51,-279,-223,8,11,9,8,
196,124,-236,-129,789,833.5814208984375,18.821182250976562,61.33503341674805,-16.446248495865056,-8.902525128718942,206,-4,1306,12,14,13,11,
197,124,-217,-78,710,746.5072021484375,17.990558624267578,70.22594451904297,-16.89909511335839,-5.997588264272331,-108,-110,1313,10,12,10,9,
198,124,-201,-86,708,740.9865112304688,17.158159255981445,66.83248138427734,-15.739258011082438,-6.664854115008117,-90,-87,437,13,18,12,14,
199,124,-235,-114,712,758.3963623046875,20.143095016479492,64.11827087402344,-18.051056802378547,-8.645308174246429,334,-256,-12,11,13,12,14,
200,131,-204,-104,698,734.5991821289062,18.16006851196289,62.98387908935547,-16.123127447279572,-8.138925377659792,-142,-481,-474,10,14,11,12,
201,131,-207,-81,741,773.6220092773438,16.695919036865234,68.62609100341797,-15.519869470645737,-6.010014857237801,-279,-33,17,8,10,9,13,
202,131,-227,-96,746,785.6596069335938,18.280515670776367,67.07279968261719,-16.793859771841948,-7.018529274767068,-51,-161,-176,7,11,10,8,
203,131,-245,-114,729,777.4715576171875,20.336559295654297,65.04376220703125,-18.368304187105934,-8.431631692539836,-61,96,-54,11,10,9,7,
204,131,-228,-137,699,747.8997192382812,20.83155632019043,58.99573516845703,-17.74936247456126,-10.555019714244166,-179,-251,1229,9,16,16,13,
205,131,-235,-84,655,700.9322509765625,20.85530662536621,70.32749938964844,-19.588822774987253,-6.882891737452677,-194,-332,905,16,19,16,16,
206,131,-228,-56,719,756.3603515625,18.081396102905273,76.19745635986328,-17.54433044760789,-4.245995004984143,-68,27,778,14,11,15,14,
207,131,-222,-115,746,786.7814331054688,18.52619743347168,62.611568450927734,-16.389295870132013,-8.404754497068776,-415,54,-4,9,17,13,11,
208,131,-252,-128,750,801.4910888671875,20.647348403930664,63.06887435913086,-18.325439185778613,-9.189618977968696,-348,156,-1474,12,17,13,11,
209,135,-198,-98,716,749.3090209960938,17.145713806152344,63.663475036621094,-15.32200338859531,-7.515081788479635,-37,-140,-1163,7,10,8,8,
210,135,-218,-99,715,754.0225219726562,18.511634826660156,65.57247924804688,-16.805041032461677,-7.544478556828929,-138,-61,618,9,14,11,11,
211,135,-235,-105,778,819.4718017578125,18.303983688354492,65.92113494873047,-16.664684727442722,-7.3616216907211705,-127,-223,1430,11,13,9,11,
212,135,-201,-166,842,881.4312133789062,17.20052719116211,50.44388198852539,-13.181600551824456,-10.855344756789279,-306,88,44,10,13,13,10,
213,135,-199,-126,753,788.9778442382812,17.367345809936523,57.65578842163086,-14.60922058466806,-9.189501400510663,89,-287,326,8,8,10,10,
214,141,-301,-66,705,769.4036865234375,23.607864379882812,77.62950897216797,-23.029938937646765,-4.920920783237673,230,-481,586,7,11,7,8,
215,141,-233,-126,698,746.5714721679688,20.779407501220703,61.59320831298828,-18.185430899451827,-9.716399827259458,68,-179,-745,7,9,9,7,
216,141,-228,-102,727,768.7112426757812,18.959121704101562,65.89440155029297,-17.253523975591904,-7.625042582912563,108,-149,-644,8,8,9,8,
217,141,-241,-108,711,758.462890625,20.374876022338867,65.85791778564453,-18.526781980914695,-8.186357061010032,-52,-406,673,12,8,12,11,
218,141,-209,-126,756,794.4136352539062,17.888381958007812,58.91187286376953,-15.253320726399574,-9.126082832629338,-98,-65,234,9,12,14,12,
219,140,-208,-82,707,741.5099487304688,17.54677391052246,68.48082733154297,-16.290568576712822,-6.349048877240657,-78,18,285,10,11,13,12,
220,140,-218,-119,688,731.456787109375,19.847270965576172,61.36763000488281,-17.33964204083911,-9.363012405677564,150,-261,-84,10,14,10,10,
221,140,-216,-90,719,756.1196899414062,18.025461196899414,67.37681579589844,-16.598845359432417,-6.836053630733737,44,-256,-53,9,10,12,13,
222,140,-201,-75,690,722.5828857421875,17.269514083862305,69.53447723388672,-16.150942579073973,-5.957706841051208,-113,-241,-233,9,15,13,11,
223,140,-191,-82,765,792.7357788085938,15.19864273071289,66.76187896728516,-13.941895764026423,-5.937252995985799,-99,-71,212,10,11,8,8,
224,148,-231,-89,709,750.9746704101562,19.244897842407227,68.92597961425781,-17.9146693358785,-6.806271020879143,-15,-45,844,7,8,6,7,
225,148,-224,-118,702,746.260009765625,19.83002281188965,62.2169075012207,-17.467422285857534,-9.097897441694194,-31,-467,-2,8,8,7,8,
226,148,-207,-120,696,735.9789428710938,18.96961212158203,59.89514923095703,-16.335303293019596,-9.38386589824449,-217,-352,-396,9,7,11,10,
227,148,-209,-102,772,806.2685546875,16.762550354003906,63.982425689697266,-15.023715761138247,-7.267890505595459,-333,-305,757,8,8,9,11,
228,148,-214,-117,786,822.9708251953125,17.236948013305664,61.329803466796875,-15.072050835486461,-8.173310238979873,-216,211,659,9,10,10,10,
229,151,-207,-130,740,779.3259887695312,18.277257919311523,57.86677932739258,-15.403448065512492,-9.602444302981919,-373,-138,97,11,15,13,13,
230,151,-235,-102,765,806.7552490234375,18.512447357177734,66.53376007080078,-16.935222219459472,-7.263482608233391,-148,-23,-368,11,10,11,11,
231,151,-225,-71,710,748.1751098632812,18.37978172302246,72.48345184326172,-17.501558125246326,-5.445424357480501,-76,-190,-447,9,10,7,7,
232,151,-229,-112,768,809.2026977539062,18.360397338867188,63.93410873413086,-16.43901393759724,-7.955725488997634,-79,-314,781,16,10,12,13,
233,151,-215,-117,760,798.4447631835938,17.85007667541504,61.44209289550781,-15.621039764761088,-8.426170522972733,-39,-93,1080,13,8,11,12,
234,155,-201,-164,798,839.1072387695312,18.006362915039062,50.78447341918945,-13.859409694532806,-11.270767823574776,-134,-20,72,10,7,10,9,
235,155,-249,-98,756,801.960693359375,19.489665985107422,68.51338958740234,-18.08870366533847,-7.0191166686315745,-10,-223,-413,8,10,10,9,
236,155,-232,-103,712,755.8948364257812,19.61968231201172,66.05706787109375,-17.873773394560573,-7.831621310880218,-5,-16,-147,6,8,7,5,
237,155,-239,-186,721,782.021728515625,22.782323837280273,52.10464859008789,-17.795354294317494,-13.759388327181409,83,-258,-416,10,11,11,11,
238,157,-234,-96,669,715.21533203125,20.70791244506836,67.69048309326172,-19.09734948372364,-7.713825525587694,136,-378,-79,10,13,12,11,
239,157,-216,-105,767,803.7225952148438,17.384628295898438,64.07168579101562,-15.589865114372053,-7.506697891585541,-45,341,659,11,12,8,11,
240,157,-288,-69,665,727.962890625,24.00331687927246,76.52378845214844,-23.304931410731985,-5.43894818463909,277,261,-555,13,10,11,14,
241,157,-231,-136,726,773.9075927734375,20.26363754272461,59.50923156738281,-17.3666457586497,-10.121233716504257,135,64,-727,12,8,14,12,
242,157,-210,-113,753,789.8594970703125,17.570659637451172,61.712032318115234,-15.41865923628768,-8.225152264682533,2,-402,924,9,10,8,10,
243,161,-210,-112,723,761.16552734375,18.218597412109375,61.924034118652344,-16.015218765144095,-8.461381404549002,-64,-74,1205,6,9,11,9,
244,161,-225,-42,738,772.6790771484375,17.22882652282715,79.42351531982422,-16.92948983389616,-3.11592394294032,-197,-41,275,10,7,8,9,
245,161,-219,-125,748,789.3604736328125,18.627670288085938,60.279781341552734,-16.107461758461294,-9.111487550550624,-55,75,-79,8,8,9,9,
246,161,-215,-162,765,810.9833374023438,19.384702682495117,52.998653411865234,-15.373503997336517,-11.522778130426879,-140,45,48,7,5,9,11,
247,161,-192,-88,697,728.2973022460938,16.855783462524414,65.37305450439453,-15.285479469538553,-6.93999346460031,-311,-296,-677,10,6,8,10,
248,161,-238,-60,710,751.2283325195312,19.06814193725586,75.84745025634766,-18.470386142050465,-4.581046966612073,-108,-33,76,10,7,12,11,
249,161,-237,-91,777,817.4221801757812,18.091703414916992,68.99162292480469,-16.854116157522146,-6.391735300517176,-10,-91,529,12,8,11,8,
250,161,-224,-164,780,827.932373046875,19.589641571044922,53.78681182861328,-15.6972060474436,-11.424927978245744,-144,-218,580,12,9,15,15,
251,161,-206,-151,757,798.9280395507812,18.642532348632812,53.75448989868164,-14.942260215599305,-10.894621129277004,-171,-38,621,11,13,11,13,
252,161,-239,-86,722,765.3764038085938,19.379955291748047,70.20637512207031,-18.195762978837273,-6.451551225544253,85,270,-405,14,13,13,13,
253,166,-223,-88,728,766.4574584960938,18.224943161010742,68.46158599853516,-16.914777906205096,-6.592893665086922,26,-190,-457,9,8,9,9,
254,166,-219,-144,720,766.2225341796875,20.000926971435547,56.67007064819336,-16.60773516160535,-10.832294928754706,-14,-274,56,9,9,8,7,
255,166,-217,-156,783,827.3536376953125,18.84376335144043,54.28416061401367,-15.205513998643948,-10.86835056725986,-69,15,391,8,8,7,13,
256,166,-221,-132,710,755.2251586914062,19.926713943481445,59.147193908691406,-17.015354653014654,-10.065990676591161,-124,-255,254,9,10,9,11,
257,166,-252,-112,729,779.4158325195312,20.718711853027344,66.03414916992188,-18.86376789541898,-8.26185392810056,90,-154,63,10,8,12,11,
258,168,-236,-151,722,774.455322265625,21.206790924072266,57.3840217590332,-17.741939346275696,-11.243306866628648,-13,-239,508,7,9,8,9,
259,168,-201,-157,730,773.2722778320312,19.25641441345215,52.003013610839844,-15.066164880164667,-11.714392934374414,-210,-418,74,15,7,10,9,
260,168,-231,-96,702,745.2388916015625,19.611177444458008,67.42967224121094,-18.057285246092093,-7.401280212114835,18,-426,-454,13,11,8,12,
261,168,-199,-53,667,698.0680541992188,17.155973434448242,75.08341217041016,-16.56318199164426,-4.3543052371714985,-408,-397,-459,12,10,12,11,
262,168,-200,-99,765,796.8851928710938,16.260536193847656,63.66115188598633,-14.535344425093045,-7.136505438467959,-364,8,123,8,11,11,11,
263,170,-225,-159,739,788.6868896484375,20.444164276123047,54.748722076416016,-16.5758444119943,-11.630592011924554,-30,-101,-401,21,12,16,15,
264,170,-224,-140,740,785.7327880859375,19.642528533935547,57.991024017333984,-16.56388163495187,-10.263629542879258,-150,-749,1459,10,6,10,11,
265,170,-229,-83,743,781.9072875976562,18.1485652923584,70.07393646240234,-17.03007275391917,-6.093466948473577,-128,-55,978,7,7,8,9,
266,170,-235,-84,765,804.6775512695312,18.065467834472656,70.32749938964844,-16.980273378154656,-5.992002087462712,-154,83,462,8,7,8,9,
267,170,-231,-128,753,797.9686889648438,19.324745178222656,61.00511169433594,-16.827129185701168,-9.2305381513598,-106,318,-608,13,9,9,9,
268,177,-231,-141,793,837.90869140625,18.841487884521484,58.596961975097656,-16.002920816283922,-9.687602331294748,-65,648,-872,9,7,8,11,
269,177,-291,-84,730,790.3397827148438,22.531845092773438,73.89556884765625,-21.60440653235751,-6.101113675392088,120,140,-1017,8,7,11,9,
270,177,-241,-85,672,718.9506225585938,20.818933486938477,70.56917572021484,-19.58535591455483,-6.789838864247365,78,332,173,15,9,13,14,
271,177,-213,-96,712,749.3524169921875,18.164514541625977,65.73533630371094,-16.51375027638483,-7.360425968158499,-27,106,1201,11,9,14,15,
272,177,-204,-183,808,853.2109985351562,18.7335205078125,48.102134704589844,-13.833237640734628,-12.385249145750636,-79,-20,890,15,12,12,11,
273,179,-227,-109,746,787.3538208007812,18.65007972717285,64.3473892211914,-16.756655272647386,-7.957493272300515,-314,8,-215,11,10,12,10,
274,179,-272,-97,756,809.27685546875,20.9039249420166,70.36963653564453,-19.63959672584,-6.884028432814461,-3,-36,-885,9,9,10,11,
275,179,-252,-152,690,750.138671875,23.09678840637207,58.899112701416016,-19.629580915233678,-11.690750125854395,478,-314,-950,9,11,9,12,
276,179,-207,-101,732,767.3812866210938,17.464187622070312,63.9877815246582,-15.649306021133597,-7.563010966718796,-140,-237,-150,9,9,7,8,
277,181,-216,-108,696,736.7061767578125,19.133460998535156,63.431514739990234,-17.049449569309328,-8.429854078636929,-80,-169,777,9,11,14,14,
278,181,-220,-64,715,750.8135375976562,17.765804290771484,73.77667236328125,-17.038575322023362,-4.889875901110846,-109,126,1256,11,10,12,14,
279,181,-234,-139,721,770.6607666015625,20.679014205932617,59.2854118347168,-17.676093966645055,-10.391003568696059,-58,-92,282,13,17,16,17,
280,181,-226,-99,674,717.7415771484375,20.104215621948242,66.34068298339844,-18.353361574935732,-7.92823518284465,-21,-222,537,9,12,13,14,
281,181,-221,-93,711,750.340576171875,18.63355827331543,67.17460632324219,-17.129530950178093,-7.119760744047145,7,-345,-138,9,10,12,10,
282,183,-230,-114,705,750.2806396484375,20.005338668823242,63.63115310668945,-17.85155850096943,-8.739551777902113,-173,-383,-23,9,9,12,11,
283,183,-201,-114,744,779.0590209960938,17.252050399780273,60.43611526489258,-14.951632777607498,-8.414325657242031,-149,-255,-653,12,11,12,13,
284,183,-212,-113,776,812.3355102539062,17.19941520690918,61.93806457519531,-15.127976914697816,-7.996064564275305,-234,126,-854,11,9,11,13,
285,183,-244,-202,804,864.1504516601562,21.501733779907227,50.375877380371094,-16.401002381593184,-13.518280538148758,21,-99,519,17,11,10,14,
286,183,-234,-69,737,776.3285522460938,18.31340980529785,73.56755828857422,-17.542838200392747,-5.099171628321854,-74,59,1075,13,11,11,10,
287,188,-236,-57,727,766.468505859375,18.464935302734375,76.4186019897461,-17.933061303521367,-4.264855143275746,47,69,534,11,9,12,10,
288,188,-237,-119,758,803.0529174804688,19.281091690063477,63.334877014160156,-17.164958810597692,-8.521730586520185,-48,98,-112,19,11,12,13,
289,188,-214,-129,716,758.348876953125,19.236183166503906,58.91469955444336,-16.391075138529235,-9.794005796994933,-120,-111,-698,8,5,6,7,
290,188,-225,-102,732,772.5626220703125,18.646766662597656,65.6102523803711,-16.932119448165682,-7.586806108125241,-121,-159,-883,11,10,10,11,
291,188,-276,-111,720,779.0359497070312,22.447093963623047,68.08799743652344,-20.7495711479492,-8.191598537722394,168,76,-476,6,11,12,12,
292,194,-213,-135,698,742.1576538085938,19.862077713012695,57.62975311279297,-16.678495808387044,-10.480568422599086,-162,-723,1433,18,11,14,17,
293,194,-183,-123,715,748.2265625,17.13680076599121,56.09007263183594,-14.156915329376972,-9.461725191472048,-201,-176,174,14,14,13,15,
294,194,-262,-71,747,794.7918090820312,19.968400955200195,74.83433532714844,-19.24729538936721,-5.125154050821697,92,-303,1475,6,9,7,10,
295,194,-224,-90,738,776.479248046875,18.111106872558594,68.10713958740234,-16.767075634083696,-6.655988343419904,30,-231,-660,8,9,11,8,
296,194,-237,-150,720,772.702392578125,21.281644821166992,57.66619873046875,-17.861417638353636,-11.193548551176631,231,-573,-1254,13,10,9,11,
297,191,-227,-85,735,773.9373168945312,18.249683380126953,69.46835327148438,-17.0559495298537,-6.305401386212593,46,-73,189,9,10,11,8,
298,191,-205,-144,729,770.844970703125,18.963226318359375,54.91060256958008,-15.42292958231174,-10.766560187434392,-51,-392,-56,10,9,10,15,
299,191,-227,-100,762,801.3569946289062,18.029266357421875,66.2217788696289,-16.455436798442754,-7.168532380037562,-75,-405,445,9,8,10,12,
300,191,-217,-135,730,773.4429321289062,19.292573928833008,58.10984802246094,-16.293849695153483,-10.052135870206204,-131,-115,1462,11,6,7,6,
301,191,-225,-154,780,826.2814331054688,19.265409469604492,55.606849670410156,-15.801433249963834,-10.741435401968662,-190,-227,-346,19,15,14,18,
302,195,-246,-84,770,812.6942749023438,18.652183532714844,71.14363098144531,-17.619654420685112,-5.932681599747461,-109,490,13,9,7,9,8,
303,195,-212,-86,680,717.453857421875,18.59290313720703,67.91624450683594,-17.186886072644917,-6.8845041881744375,-131,-516,-321,11,11,10,10,
304,195,-207,-78,750,781.9418334960938,16.430940628051758,69.34974670410156,-15.350647347421463,-5.724870586680227,-44,110,-233,10,10,13,10,
305,195,-210,-159,806,847.94873046875,18.09539794921875,52.86532211303711,-14.338878623416623,-10.807584531767874,-166,36,810,8,10,11,13,
306,195,-195,-168,792,832.7742919921875,18.00130271911621,49.24998474121094,-13.541941204286438,-11.638455199902836,-202,-173,-1622,8,7,8,9,
307,200,-234,-78,754,793.319580078125,18.11246109008789,71.56185150146484,-17.155323884866075,-5.642496037202043,9,227,1562,8,11,10,8,
308,200,-251,-134,727,780.6958618164062,21.372093200683594,61.900333404541016,-18.754150030158666,-9.883287542872898,-146,26,632,14,16,9,11,
309,200,-231,-104,703,747.2523193359375,19.814970016479492,65.75857543945312,-18.006960983284024,-8.000199781558923,-84,-283,-382,7,7,7,8,
310,200,-215,-87,722,758.3389892578125,17.806970596313477,67.96592712402344,-16.470066055815632,-6.587730353651106,-25,-279,301,7,5,6,5,
311,200,-237,-135,760,807.46142578125,19.740230560302734,60.329750061035156,-17.06835954623619,-9.624517108278214,-13,-38,-630,11,7,9,6,
312,207,-238,-98,738,781.5958251953125,19.224775314331055,67.61654663085938,-17.72839908062267,-7.202960778445462,80,-104,358,13,12,9,8,
313,207,-246,-119,708,758.9077758789062,21.103351593017578,64.18167877197266,-18.914089712669046,-9.02145465609027,52,-49,-372,7,8,7,7,
314,207,-215,-128,704,747.1445922851562,19.564313888549805,59.229034423828125,-16.724032450506503,-9.864512714868297,-16,-268,268,7,8,7,11,
315,207,-237,-97,675,721.9439086914062,20.773744583129883,67.73825073242188,-19.164433151381996,-7.721582762877528,97,-379,1055,12,7,8,14,
316,208,-231,-111,774,815.326904296875,18.318498611450195,64.33140563964844,-16.458568428953555,-7.824644462072712,76,-466,-136,9,6,10,11,
317,208,-183,-171,809,846.8831176757812,17.199934005737305,46.93755340576172,-12.47927719267899,-11.64907572744894,-155,-104,-411,8,13,8,8,
318,208,-214,-98,766,801.3463745117188,17.078693389892578,65.39149475097656,-15.488833377594972,-7.0245250148547305,-194,173,126,8,6,7,7,
319,208,-191,-109,725,757.6193237304688,16.871925354003906,60.283905029296875,-14.602140518313979,-8.271949109797538,-6,-142,59,19,11,15,11,
320,208,-247,-99,733,779.8070068359375,19.950382232666016,68.15531158447266,-18.466191827787384,-7.29363889901058,119,-297,-128,9,7,10,10,
321,208,-219,-84,738,774.3778076171875,17.629579544067383,69.01182556152344,-16.427848058239665,-6.227366314923114,-115,-56,673,10,7,8,10,
322,208,-235,-174,772,825.5210571289062,20.742822647094727,53.47907638549805,-16.539045967269978,-12.167829966448759,-4,-84,132,11,5,8,10,
323,208,-210,-134,756,795.9849243164062,18.235509872436523,57.45463562011719,-15.297091866770192,-9.691601788179211,-95,-254,-389,7,7,8,7,
324,208,-218,-123,735,776.4522094726562,18.804283142089844,60.56391143798828,-16.30582157789685,-9.114784060345448,9,-890,155,7,6,8,7,
325,208,-256,-96,737,786.0795288085938,20.351503372192383,69.4406967163086,-19.00597779844876,-7.0147611849561775,210,56,56,14,9,14,12,
326,214,-233,-83,722,763.1919555664062,18.908275604248047,70.38968658447266,-17.776015502925784,-6.243480471152414,100,776,-311,13,11,13,15,
327,214,-228,-165,782,831.1034545898438,19.791677474975586,54.10361862182617,-15.922332938984926,-11.451082717108921,-71,-207,504,15,13,15,16,
328,214,-209,-135,735,775.9710083007812,18.699668884277344,57.136627197265625,-15.624994460636817,-10.019048295672807,-45,-122,182,10,10,11,10,
329,214,-231,-126,717,763.7578125,20.150388717651367,61.386043548583984,-17.6049294188808,-9.495710253626905,0,-355,-666,8,8,13,12,
330,214,-221,-150,714,762.3234252929688,20.5080623626709,55.830299377441406,-16.852160874853602,-11.34795821966198,6,-397,-19,10,9,9,9,
331,214,-228,-87,737,776.3517456054688,18.318580627441406,69.11093139648438,-17.078480446900286,-6.434229657660622,91,-301,415,7,8,7,8,
332,214,-210,-66,740,772.046630859375,16.563955307006836,72.54964447021484,-15.783568995145634,-4.904033548920257,-13,36,295,6,7,9,11,
333,214,-204,-117,737,773.6110229492188,17.695287704467773,60.16093063354492,-15.289626896018108,-8.698723549572007,-135,-121,-110,6,9,7,6,
334,214,-212,-147,771,813.015380859375,18.498268127441406,55.2590217590332,-15.115024716742061,-10.416849696097717,-1,-177,616,7,9,8,7,
335,214,-223,-90,664,706.2046508789062,19.906475067138672,68.018310546875,-18.407454681069407,-7.321789341349749,-117,-518,40,5,7,5,6,
336,218,-231,-81,727,767.1055908203125,18.60689926147461,70.67359161376953,-17.525602964643856,-6.061259170659575,-27,146,-268,14,12,15,9,
337,218,-220,-79,736,772.2285766601562,17.617748260498047,70.24401092529297,-16.552257690395372,-5.871705861390868,95,-214,-38,7,7,9,9,
338,218,-225,-135,781,823.89990234375,18.568716049194336,59.03267288208008,-15.848308493710196,-9.430717546076538,-119,-75,403,7,7,8,9,
339,218,-218,-130,755,796.5230712890625,18.5797061920166,59.18753433227539,-15.883932095024177,-9.393226834584059,15,3,167,7,7,8,9,
340,218,-234,-144,742,791.2369995117188,20.317228317260742,58.38890838623047,-17.20188354384003,-10.485897705448405,72,73,565,7,7,6,6,
341,221,-226,-85,707,747.0943603515625,18.854063034057617,69.38514709472656,-17.608138998032473,-6.5329228641915345,29,-128,523,7,8,10,8,
342,221,-232,-119,713,759.1798095703125,20.085063934326172,62.841861724853516,-17.793840670788473,-9.018194840278646,-49,-108,-52,12,9,9,8,
343,221,-231,-159,701,755.0119018554688,21.8016357421875,55.456241607666016,-17.815654348833505,-12.157088319675548,-154,-390,-561,13,12,12,10,
344,221,-232,-120,714,760.2762451171875,20.09159278869629,62.64665985107422,-17.767322829011114,-9.08139119475308,-10,-283,369,10,8,10,11,
345,221,-225,-148,744,791.24267578125,19.897104263305664,56.66032791137695,-16.52076477343835,-10.780531958103717,-62,-355,-85,6,9,8,8,
346,226,-211,-92,752,786.4407348632812,17.01702308654785,66.43853759765625,-15.562977365149244,-6.718000452548805,70,-125,82,8,8,9,8,
347,226,-223,-97,675,717.4698486328125,19.810564041137695,66.48869323730469,-18.108319881529187,-7.770029917396316,53,69,537,10,9,11,9,
348,226,-237,-139,778,825.0902709960938,19.44883918762207,59.60491180419922,-16.69286783297595,-9.698664824218003,-16,-244,338,5,9,9,10,
349,226,-231,-87,723,763.9757690429688,18.848360061645508,69.35919189453125,-17.599742352684565,-6.538911447463067,46,-141,13,8,7,9,9,
350,226,-223,-72,738,774.3106689453125,17.613937377929688,72.10311126708984,-16.738143142692223,-5.335409155611351,52,-57,-306,8,7,7,7,
351,231,-216,-123,726,767.372802734375,18.89794158935547,60.33736038208008,-16.34854835725134,-9.22356400114342,88,-286,427,8,8,9,8,
352,231,-227,-122,720,764.7306518554688,19.691564559936523,61.740936279296875,-17.267696561549464,-9.179807751635193,76,-383,-210,9,8,8,8,
353,231,-238,-99,732,776.0599365234375,19.39731788635254,67.4110107421875,-17.859105809814526,-7.329048179377334,43,-362,996,7,9,7,8,
354,231,-218,-48,729,762.4099731445312,17.0225830078125,77.57953643798828,-16.614769513748485,-3.609629371824796,35,-77,1238,7,12,8,7,
355,227,-231,-90,747,787.0641479492188,18.35778045654297,68.71031188964844,-17.067358816002386,-6.566077785054367,40,211,-388,11,8,9,7,
356,227,-216,-166,786,831.8701782226562,19.113651275634766,52.453285217285156,-15.049645394582338,-11.51066694681555,22,-109,183,10,7,6,7,
357,227,-212,-202,811,862.2464599609375,19.85105323791504,46.37974548339844,-14.233216608949139,-13.548699316522514,12,-173,-742,11,11,10,9,
358,227,-252,-91,738,785.1299438476562,19.95110511779785,70.14154815673828,-18.721353624990904,-6.655791242387459,174,-240,-27,13,9,11,7,
359,227,-216,-30,729,760.9185180664062,16.651884078979492,82.08995056152344,-16.491162440237463,-2.25953101347599,-65,-211,164,6,11,11,10,
360,231,-210,-106,761,796.528076171875,17.17498207092285,63.213653564453125,-15.286405651592325,-7.6474680802710635,-61,283,1141,10,8,14,12,
361,231,-186,-193,808,851.2984008789062,18.35019874572754,43.9378662109375,-12.62034567376219,-13.103600261780056,90,161,446,5,8,12,13,
362,231,-207,-120,756,792.9596557617188,17.56000518798828,59.89514923095703,-15.13221619309795,-8.704113430705137,-55,-128,-9,13,9,9,9,
363,231,-255,-105,734,784.0956420898438,20.589685440063477,67.61654663085938,-18.978626763199333,-7.695724279417284,-34,-72,-392,7,7,10,6,
364,231,-232,-132,708,756.6452026367188,20.654909133911133,60.35808563232422,-17.855449934180328,-10.046902276564738,89,-189,-282,9,10,8,10,
365,238,-211,-78,711,745.7385864257812,17.554882049560547,69.70899200439453,-16.435810365665994,-6.003792751571869,-37,-347,-106,9,11,11,10,
366,238,-228,-44,706,743.20654296875,18.204164505004883,79.07421875,-17.865211328536795,-3.3940621997129146,31,-135,879,32,31,30,33,
367,238,-210,-87,762,795.1810913085938,16.60792350769043,67.49315643310547,-15.312933807569637,-6.281250299097528,-126,-439,500,33,36,29,35,
368,238,-218,-204,777,832.3875122070312,21.017301559448242,46.896175384521484,-15.182667718139117,-14.186452485625756,-2,80,983,20,21,27,28,
369,238,-205,-96,746,779.5877075195312,16.877634048461914,64.90325927734375,-15.245741533419396,-7.073471998483418,-97,-59,-225,22,22,20,21,
370,243,-222,-69,747,782.3388061523438,17.284650802612305,72.73103332519531,-16.485012582102197,-5.059895045593855,2,-147,238,12,14,14,12,
371,243,-231,-132,727,774.1537475585938,20.098655700683594,60.251583099365234,-17.36094921510907,-9.817401286425017,96,17,-420,11,10,12,10,
372,243,-236,-114,769,812.4364624023438,18.81810188293457,64.21367645263672,-16.886949915920297,-8.066286478320608,61,526,-817,10,9,8,10,
373,243,-229,-128,726,771.9462280273438,19.865610122680664,60.793399810791016,-17.256671900391392,-9.544562713268474,-30,-270,-142,7,7,9,9,
374,243,-231,-75,717,757.0171508789062,18.71074867248535,72.00948333740234,-17.766887249516696,-5.685795068892013,0,-144,691,9,6,7,8,
375,243,-219,-126,726,768.7086791992188,19.186641693115234,60.082820892333984,-16.552474909153084,-9.433992846963019,-71,-223,891,12,12,12,9,
376,243,-213,-134,739,780.6702270507812,18.802658081054688,57.82207107543945,-15.833481212636592,-9.883615130053535,-78,-440,1036,9,7,8,7,
377,243,-212,-112,744,781.6802368164062,17.86028289794922,62.14894485473633,-15.736319791649096,-8.237753783120647,-82,-338,161,7,7,7,7,
378,243,-217,-75,737,771.9345703125,17.301063537597656,70.93050384521484,-16.326577793628193,-5.575567127402246,-82,-60,-675,10,6,9,7,
379,243,-220,-98,704,744.0564575195312,18.88385009765625,65.98583984375,-17.198107151329765,-7.568443111440188,38,-441,-541,8,9,6,6,
380,242,-215,-126,740,780.8335571289062,18.609249114990234,59.62417221069336,-15.982681204833664,-9.286193881483067,-82,-113,237,7,10,6,6,
381,242,-226,-111,753,793.9810791015625,18.486759185791016,63.838592529296875,-16.53742250470598,-8.03637830282131,-68,-348,742,10,12,9,8,
382,242,-212,-72,738,771.214599609375,16.874479293823242,71.2381362915039,-15.955521682770318,-5.356890614622118,16,9,522,18,11,11,11,
383,242,-234,-87,756,796.1538696289062,18.27237319946289,69.60186767578125,-17.092369409243584,-6.2735448145604416,214,-220,924,9,7,9,16,
384,242,-168,-161,807,839.8773803710938,16.08223533630371,46.214927673339844,-11.538666656195025,-11.051698656480331,-63,-124,225,9,6,8,8,
385,249,-212,-147,765,807.3276977539062,18.633386611938477,55.2590217590332,-15.224080341086934,-10.491065470128023,42,-268,-748,9,7,6,7,
386,249,-231,-112,754,796.5054931640625,18.800430297851562,64.13023376464844,-16.8589637562438,-8.08339016227399,-48,-919,-823,8,7,7,7,
387,249,-222,-48,766,798.96435546875,16.513669967651367,77.79651641845703,-16.13250718702477,-3.4442770555507685,-19,239,-66,8,6,6,7,
388,249,-196,-135,752,788.7616577148438,17.559452056884766,55.438209533691406,-14.388221756134186,-9.854942623920417,-216,16,1063,7,7,9,7,
389,249,-211,-135,747,787.8800659179688,18.53573989868164,57.38484191894531,-15.533827465604013,-9.866080328478276,79,0,299,5,10,7,7,
390,256,-261,-123,726,781.233642578125,21.672103881835938,64.7637710571289,-19.5170282195729,-9.058527066420073,135,-220,712,8,7,7,7,
391,256,-219,-59,718,752.971435546875,17.52861213684082,74.91903686523438,-16.90871231993173,-4.494087730708898,45,23,477,11,8,8,7,
392,256,-207,-99,759,792.9255981445312,16.818607330322266,64.4366226196289,-15.132881555312775,-7.172329477259082,-32,-226,-828,9,9,9,6,
393,256,-219,-96,746,783.3856201171875,17.77020263671875,66.32611083984375,-16.23369614337143,-7.039005475349907,38,-217,-791,6,8,8,9,
394,256,-243,-124,726,775.56494140625,20.592697143554688,62.96186828613281,-18.25942256206206,-9.200131252703478,131,-378,-85,11,6,10,10,
395,258,-229,-88,706,747.4095458984375,19.15962028503418,68.97598266601562,-17.8419054469749,-6.761689619898443,36,-63,1048,7,6,9,10,
396,258,-207,-113,717,754.7893676757812,18.20488166809082,61.366661071777344,-15.917246225465691,-8.610158075594539,-137,-163,1143,11,8,10,10,
397,258,-222,-152,775,820.3737182617188,19.142940521240234,55.59748077392578,-15.700472443881763,-10.67754000674446,-193,-260,1144,7,6,11,12,
398,258,-216,-85,728,764.110595703125,17.68274688720703,68.51615905761719,-16.4203159619521,-6.386826529327032,-89,105,158,9,9,7,9,
399,259,-229,-92,767,805.7257690429688,17.83393096923828,68.10906982421875,-16.5119795299,-6.5564907935161525,5,-384,-670,9,8,10,10,
400,259,-225,-82,760,796.8368530273438,17.487533569335938,69.97277069091797,-16.401492841083414,-5.9065865766903505,-47,373,-728,7,10,7,8,
401,259,-217,-174,750,799.9156494140625,20.345792770385742,51.27205276489258,-15.740365937592761,-12.56358505679105,-45,-63,137,9,7,8,9,
402,259,-222,-108,720,761.1491088867188,18.92392349243164,64.05428314208984,-16.957619288477712,-8.157268998138195,-34,-222,959,12,13,13,10,
403,259,-219,-66,698,734.5209350585938,18.141441345214844,73.22562408447266,-17.346732838251533,-5.155235770359132,2,62,1061,14,9,9,9,
404,258,-229,-96,754,793.8343505859375,18.22569465637207,67.2525634765625,-16.766575338642955,-6.945895622267631,37,-246,79,8,8,10,10,
405,258,-224,-119,756,797.4164428710938,18.545137405395508,62.01704788208008,-16.31435496008934,-8.582418678592495,19,-67,674,16,10,11,13,
406,258,-197,-156,792,830.9085693359375,17.601116180419922,51.62127685546875,-13.714845723254243,-10.82128970154667,-72,129,-239,12,9,11,11,
407,258,-216,-84,716,752.57421875,17.933866500854492,68.7462158203125,-16.679324748743568,-6.408530809748149,-78,-174,-197,8,9,8,14,
408,258,-238,-55,699,740.4525756835938,19.2603759765625,76.9847640991211,-18.749127572463294,-4.259790593781354,-94,164,-480,8,10,9,6,
409,265,-226,-151,709,759.3141479492188,20.972856521606445,56.2478141784668,-17.315731808115334,-11.470517310189875,-1,-262,-852,12,12,11,10,
410,265,-221,-130,787,827.7137451171875,18.04318618774414,59.5308952331543,-15.48585846032975,-9.036238861258706,-68,21,1215,11,18,12,15,
411,265,-202,-123,748,784.4979248046875,17.543701171875,58.65873718261719,-14.921151502826735,-9.020519399129288,-47,149,-110,11,16,10,11,
412,265,-212,-90,743,777.8772583007812,17.220083236694336,66.99407196044922,-15.815263861230076,-6.643972200500026,-137,-482,-130,10,12,13,11,
413,265,-211,-121,736,775.1503295898438,18.285507202148438,60.163936614990234,-15.795535587619424,-8.980526139901922,-50,-345,-54,11,13,13,11,
414,268,-231,-104,720,763.267333984375,19.382326126098633,65.75857543945312,-17.616613216803103,-7.831273356450338,47,-279,-388,8,14,10,9,
415,268,-209,-101,675,713.797607421875,18.975425720214844,64.20426177978516,-17.02566802531991,-8.134462800711974,-119,-337,-11,14,8,10,9,
416,268,-225,-57,730,766.01171875,17.636232376098633,75.78107452392578,-17.08134884967817,-4.267403005006023,123,135,380,7,8,9,9,
417,268,-233,-123,759,803.4295043945312,19.14141845703125,62.16708755493164,-16.858361245585062,-8.806253912483358,347,-186,996,8,6,10,7,
418,268,-222,-133,699,745.3683471679688,20.314058303833008,59.07063674926758,-17.327873227231496,-10.27863152963816,6,-286,214,13,10,9,8,
419,268,-213,-107,727,765.0797119140625,18.150915145874023,63.324005126953125,-16.16487539670206,-8.039438699948569,-38,-137,-355,11,12,11,9,
420,268,-199,-72,724,754.2950439453125,16.291423797607422,70.1061782836914,-15.296997147800457,-5.477414350211475,-169,-46,-279,11,7,11,8,
421,268,-234,-112,771,813.4746704101562,18.59470558166504,64.41929626464844,-16.717612628716175,-7.913677652319494,-3,-251,-426,11,9,9,8,
422,268,-212,-139,768,808.7576904296875,18.265174865722656,56.745094299316406,-15.196511891346912,-9.89647748567317,-12,-168,-74,7,8,8,6,
423,268,-220,-150,772,816.629638671875,19.027732849121094,55.70945739746094,-15.628564288367716,-10.584287759595838,127,25,1037,8,8,8,7,
424,272,-183,-99,735,763.8815307617188,15.803473472595215,61.583839416503906,-13.860923365018662,-7.446550556317625,-175,-152,763,9,16,7,7,
425,272,-209,-87,695,730.941162109375,18.04003143310547,67.39628601074219,-16.61460996146811,-6.835814339441258,-61,-57,549,8,9,8,10,
426,272,-240,-75,726,768.3104858398438,19.101131439208984,72.64280700683594,-18.202339937575235,-5.601950844270701,14,172,-112,10,9,10,9,
427,272,-252,-104,741,789.5574951171875,20.196712493896484,67.57081604003906,-18.612503278399757,-7.568958515140945,185,-125,-444,7,11,9,11,
428,272,-203,-144,732,773.1552124023438,18.776456832885742,54.64595031738281,-15.222045861300993,-10.734006745855774,97,-179,-80,12,9,11,10,
429,273,-220,-96,732,770.3505859375,18.152944564819336,66.42195129394531,-16.593775977943775,-7.158730242272399,-69,-136,192,9,9,8,9,
430,273,-213,-94,724,760.513671875,17.82431411743164,66.18408203125,-16.264613629974594,-7.099953744762597,-153,44,484,10,7,9,8,
431,273,-226,-113,726,768.7138671875,19.187755584716797,63.431514739990234,-17.097436464017942,-8.453041316410445,-17,-416,172,9,7,7,7,
432,273,-228,-138,792,835.638671875,18.596160888671875,58.81145095825195,-15.833643063109378,-9.505550195879895,147,82,240,11,14,12,9,
433,273,-183,-102,753,781.6021728515625,15.545920372009277,60.8621940612793,-13.540606964310882,-7.498553841421545,-416,-182,263,10,13,10,9,
434,279,-207,-138,739,779.7525024414062,18.603607177734375,56.30628204345703,-15.394813333585587,-10.193857579446156,-198,-223,483,8,17,9,7,
435,279,-205,-149,722,765.186279296875,19.339445114135742,53.98551940917969,-15.5398559392039,-11.228591147106942,70,-361,456,7,15,7,7,
436,279,-234,-82,706,748.2753295898438,19.349512100219727,70.68492126464844,-18.223173199489484,-6.291412128174614,-138,-526,-168,6,15,7,7,
437,279,-210,-85,738,771.9902954101562,17.063217163085938,67.96046447753906,-15.784751058359832,-6.321369115217236,-153,-183,-237,6,10,5,7,
438,280,-214,-120,771,809.096435546875,17.650049209594727,60.71505355834961,-15.336804238931016,-8.529209751358126,66,-142,702,9,10,9,6,
439,280,-210,-174,807,851.8362426757812,18.670196533203125,50.35199737548828,-14.272048534599662,-11.786453427502929,70,-133,260,7,12,11,9,
440,280,-279,-108,725,784.30224609375,22.42167091369629,68.83545684814453,-20.838203918166705,-7.914893609448899,130,-127,-34,10,7,11,11,
441,280,-227,-79,732,770.4505004882812,18.175594329833984,70.8079833984375,-17.135520290346314,-5.885304616415961,58,-88,-130,13,9,11,11,
442,280,-189,-75,765,791.5623779296875,14.88284683227539,68.3522720336914,-13.813855569715317,-5.436892031699475,-88,-46,15,11,11,8,9,
443,285,-198,-147,775,813.2883911132812,17.648799896240234,53.40517044067383,-14.090611016397006,-10.413313852757504,-100,-77,675,8,10,11,9,
444,285,-210,-183,798,845.2177124023438,19.239843368530273,48.92630386352539,-14.386205977744469,-12.504263442129032,-216,367,764,11,7,8,6,
445,285,-221,-107,747,786.3198852539062,18.193666458129883,64.16204071044922,-16.323245622997625,-7.820898187224065,-36,36,-475,12,7,9,8,
446,285,-241,-93,726,770.5880737304688,19.584232330322266,68.89551544189453,-18.224925169273018,-6.931755608492791,45,-43,-171,9,5,7,8,
447,285,-213,-162,726,773.7499389648438,20.231998443603516,52.7409553527832,-15.97886363425364,-12.085433000404084,-20,-315,251,11,9,8,9,
448,283,-183,-116,740,771.0674438476562,16.317569732666016,57.626609802246094,-13.72920433143361,-8.652472207549033,-115,-445,-213,9,8,9,9,
449,283,-204,-102,742,776.2628173828125,17.08443832397461,63.431514739990234,-15.236125898973455,-7.550430649502299,-111,-302,51,9,8,11,9,
450,283,-255,-93,734,782.5790405273438,20.292085647583008,69.95954132080078,-19.016817420446205,-6.8250353186681565,139,-138,396,6,8,9,7,
451,283,-219,-111,714,755.0350952148438,18.974510192871094,63.118408203125,-16.86111358477832,-8.453866913414313,-100,22,263,6,12,9,6,
452,283,-206,-97,717,752.2858276367188,17.615951538085938,64.78208923339844,-15.892425925585222,-7.4083634363882105,-33,-53,646,10,7,9,8,
453,286,-220,-116,726,767.4190673828125,18.908023834228516,62.19507598876953,-16.659008617475862,-8.69392483066988,-69,-349,-250,9,8,8,10,
454,286,-234,-81,734,774.643798828125,18.6402645111084,70.90328979492188,-17.5822345972973,-6.002058244504166,-99,-182,-329,7,7,9,8,
455,286,-203,-126,767,803.3517456054688,17.299951553344727,58.16897201538086,-14.63682733060964,-9.023693007614625,-197,7,240,10,5,10,7,
456,286,-249,-123,808,854.3968505859375,18.96658706665039,63.708309173583984,-16.94380631501319,-8.277129369460697,-140,79,242,10,10,11,11,
457,286,-244,-103,728,774.679931640625,19.989500045776367,67.11054992675781,-18.35892957491564,-7.64056531564477,-241,-101,909,9,6,11,10,
458,292,-231,-83,713,754.0682983398438,18.994537353515625,70.23302459716797,-17.83869729489751,-6.319328018423977,-31,-237,2,8,7,8,8,
459,292,-214,-75,744,777.789794921875,16.94841766357422,70.6828842163086,-15.97027387480474,-5.533462535012829,-132,4,-301,11,8,8,9,
460,292,-234,-180,792,845.2337036132812,20.441139221191406,52.42764663696289,-16.072084464400703,-12.295805305749585,88,31,-131,12,6,11,9,
461,292,-264,-171,852,908.2075805664062,20.261150360107422,57.06414031982422,-16.898817514318928,-10.852595958635819,-113,-94,46,11,7,12,10,
462,292,-252,-78,732,778.082275390625,19.81588363647461,72.79829406738281,-18.897322850120602,-5.753363508033484,63,151,735,7,9,10,12,
463,292,-255,-114,765,814.399169921875,20.05645751953125,65.90918731689453,-18.247011463684146,-8.04671770346243,34,-157,782,8,7,9,9,
464,292,-228,-139,696,745.4669799804688,20.987958908081055,58.627891540527344,-17.809222696464968,-10.746283420564446,-50,-407,326,9,7,13,10,
465,292,-214,-99,702,740.541015625,18.56423568725586,65.1705551147461,-16.79677522317731,-7.682647111547666,-80,-98,422,13,10,7,10,
466,292,-234,-132,739,786.3211669921875,19.976665496826172,60.56901931762695,-17.312809520386725,-9.664018847004627,-46,214,-161,12,8,7,10,
467,292,-260,-60,731,778.177978515625,20.051280975341797,77.0023422241211,-19.51865691522883,-4.422075786865518,176,123,-476,11,7,12,12,
468,300,-242,-151,699,754.9609375,22.19721794128418,58.033592224121094,-18.695971489537698,-11.537564344848917,115,-261,-688,11,10,11,10,
469,300,-205,-135,742,781.5458984375,18.302453994750977,56.62998962402344,-15.206618581439237,-9.94685127959631,-94,-191,-335,10,7,10,8,
470,300,-216,-126,739,780.1621704101562,18.69277000427246,59.74001693725586,-16.073217657498883,-9.294255897023648,-129,-324,1023,11,9,9,9,
471,300,-235,-38,724,762.1318969726562,18.19884490966797,80.81173706054688,-17.95955602444818,-2.8579604253520614,-21,-32,803,14,10,10,12,
472,300,-220,-127,738,780.495361328125,18.991785049438477,59.99979019165039,-16.371979647909722,-9.364646161615786,-2,122,1015,15,7,9,8,
473,302,-216,-163,794,838.8450317382812,18.817398071289062,52.95695877075195,-14.921588927037893,-11.204698481784753,-52,33,-512,11,10,9,12,
474,302,-196,-100,726,758.6118774414062,16.85886573791504,62.96568298339844,-14.973165987145151,-7.574759118638457,-117,-314,-16,8,8,9,9,
475,302,-228,-54,720,757.165771484375,18.024169921875,76.67242431640625,-17.525063405814517,-4.089726556864014,-130,-364,-304,9,11,11,9,
476,302,-233,-50,702,741.3453979492188,18.748451232910156,77.88543701171875,-18.31816505205522,-3.867246415654465,-56,127,-162,13,10,13,14,
477,302,-231,-150,768,815.8952026367188,19.72734260559082,56.99866485595703,-16.44677902076754,-10.59392545808444,53,163,641,8,9,14,17,
478,301,-203,-156,774,815.242919921875,18.300657272338867,52.45494079589844,-14.418672928618205,-11.031813245820151,-217,-194,1049,10,9,11,10,
479,301,-213,-109,687,727.4744262695312,19.200220108032227,62.89603805541992,-17.025291547434062,-8.617274959644048,-146,-405,363,9,8,10,11,
480,301,-201,-87,724,756.4033203125,16.829174041748047,66.59197235107422,-15.410408091134101,-6.604663384668796,-379,-330,-446,13,12,13,13,
481,301,-245,-90,741,785.6245727539062,19.40206527709961,69.82609558105469,-18.170983543911014,-6.578162514326551,-161,124,-654,5,8,8,9,
482,303,-235,-157,768,818.3507690429688,20.201282501220703,56.25005340576172,-16.688180202723792,-11.06072520035743,1,-254,97,8,8,9,9,
483,303,-205,-211,732,788.904296875,21.89293098449707,44.16966247558594,-15.061403798436613,-15.513151787024738,-84,-152,-278,8,10,11,14,
484,303,-264,-111,735,788.8231811523438,21.285900115966797,67.19213104248047,-19.552822651824812,-8.089277124265422,145,-76,700,10,8,13,11,
485,303,-237,-143,704,756.4614868164062,21.4617977142334,58.89067077636719,-18.258265642660167,-10.896650706550776,-56,-371,1287,10,9,9,9,
486,303,-204,-120,699,737.981689453125,18.703672409057617,59.5308952331543,-16.047228078048576,-9.358170331819169,-106,-624,416,8,5,7,7,
487,308,-216,-153,785,828.4262084960938,18.631732940673828,54.685089111328125,-15.113699668283095,-10.64291581958413,-189,1,-1061,8,6,10,8,
488,308,-212,-83,721,756.0912475585938,17.522300720214844,68.61590576171875,-16.2834485829738,-6.302351682760928,25,219,-104,11,5,11,9,
489,308,-269,-69,711,763.310546875,21.333023071289062,75.61040496826172,-20.634931122734237,-5.186372445843631,107,465,369,9,6,12,11,
490,308,-264,-166,705,770.8936157226562,23.859968185424805,57.83521270751953,-20.026803028748354,-12.43515272732233,373,-403,-2058,15,9,10,14,
491,308,-234,-60,751,788.8960571289062,17.828998565673828,75.61553192138672,-17.254526357025416,-4.361879639536587,-51,-355,990,18,8,9,11,
492,309,-231,-72,699,739.6931762695312,19.091344833374023,72.68518829345703,-18.197390070058812,-5.585881333987367,30,-152,1410,14,8,14,11,
493,309,-225,-48,724,759.6742553710938,17.62638282775879,77.95441436767578,-17.228283086720417,-3.622645608469219,-71,156,288,10,8,9,9,
494,309,-228,-116,707,751.8570556640625,19.889474868774414,63.03084182739258,-17.65285901877856,-8.875310713667826,-118,-187,628,6,5,7,8,
495,309,-213,-102,697,735.9225463867188,18.715713500976562,64.4080810546875,-16.82399152744277,-7.966931570166322,-167,-312,-869,10,7,10,8,
496,309,-216,-76,735,769.8421630859375,17.301645278930664,70.61225891113281,-16.2946439033228,-5.665555323708844,-136,51,-431,10,11,9,9,
497,314,-231,-131,786,829.6493530273438,18.66607093811035,60.43893051147461,-16.166577657388522,-9.08491180392108,-50,-112,-438,10,6,10,8,
498,314,-183,-114,717,748.7149047851562,16.734012603759766,58.075531005859375,-14.147489451005855,-8.75797148723064,-327,169,827,12,9,12,15,
499,314,-194,-186,817,860.0703735351562,18.207006454467773,46.20209884643555,-13.035983542646925,-12.489540221353698,-383,-94,834,15,9,10,14,
500,314,-233,-132,725,772.87646484375,20.270631790161133,60.46390151977539,-17.545989067347282,-9.833786984644652,-50,-229,689,12,9,9,10,
501,314,-282,-95,730,788.3203735351562,22.1754093170166,71.37918853759766,-20.960397938957076,-6.921501351061191,190,231,357,12,12,15,11,
502,320,-233,-151,735,785.6939697265625,20.692325592041016,57.050357818603516,-17.250692985985875,-11.080430328511378,196,-267,-1114,12,8,10,8,
503,320,-206,-107,688,726.1053466796875,18.64230728149414,62.54838562011719,-16.48147859965894,-8.474054382535044,67,-309,-1100,10,7,13,13,
504,320,-234,-210,823,881.0136108398438,20.9064998626709,48.09015655517578,-15.402795621846867,-13.78987312868491,-49,-58,-421,17,8,10,9,
505,320,-209,-72,708,741.706787109375,17.33745002746582,70.98807525634766,-16.3666186672341,-5.570668374051492,-156,-260,372,8,8,9,9,
506,320,-224,-123,743,785.71875,18.978116989135742,61.224998474121094,-16.56418527386738,-9.006386620210828,-47,-89,1570,9,6,11,7,
507,312,-212,-114,681,722.2886962890625,19.464460372924805,61.72800064086914,-17.068297971936573,-9.081058091792688,-192,-280,-168,15,8,14,8,
508,312,-204,-102,696,732.4179077148438,18.141830444335938,63.431514739990234,-16.172460654447754,-8.005302931480724,-70,-386,608,10,6,11,12,
509,312,-215,-59,702,736.5527954101562,17.61720848083496,74.65161895751953,-16.97176031174826,-4.59447937608921,-135,36,165,12,7,8,8,
510,312,-204,-97,739,772.752197265625,16.994455337524414,64.56596374511719,-15.30703473680084,-7.211095576546934,-332,-171,-707,10,8,9,8,
511,312,-228,-142,771,816.4490356445312,19.205411911010742,58.081459045410156,-16.215930675288455,-10.016042007948737,-109,-103,970,7,8,5,7,
512,319,-242,-131,709,760.5300903320312,21.210527420043945,61.56884002685547,-18.554050071853386,-9.918564770305974,-4,-288,-1989,21,11,12,11,
513,319,-239,-65,719,760.4649658203125,19.005718231201172,74.78235626220703,-18.31743790803331,-4.903283439327904,-76,-567,1985,10,9,10,11,
514,319,-233,-66,702,742.5961303710938,19.030683517456055,74.18148040771484,-18.28621944939615,-5.099027061573949,62,-115,-51,15,10,7,7,
515,319,-226,-130,777,819.5761108398438,18.54705047607422,60.08803939819336,-16.006851531929716,-9.12672284877269,34,-16,43,9,7,9,7,
516,325,-230,-136,758,803.7163696289062,19.415828704833984,59.40043640136719,-16.628834035027147,-9.742118064481074,-80,-125,863,8,5,8,9,
517,325,-225,-130,732,776.7554321289062,19.542484283447266,59.97809600830078,-16.83798883014586,-9.634524627774553,-101,-153,-1076,8,7,5,8,
518,325,-213,-80,751,784.7101440429688,16.852901458740234,69.41122436523438,-15.749842753643803,-5.851383270156094,8,-287,-515,8,7,8,7,
519,325,-211,-111,774,809.8876342773438,17.118276596069336,62.24917221069336,-15.10151069283737,-7.877528025021234,-223,-2,460,10,8,9,7,
520,325,-181,-177,799,838.1473388671875,17.578466415405273,45.63618850708008,-12.47141310619905,-12.191515025833501,-397,4,305,8,7,10,9,
521,330,-198,-144,777,814.6588134765625,17.487083435058594,53.968910217285156,-14.066419035029677,-10.181160283364367,-103,-212,869,10,7,12,15,
522,330,-217,-86,729,765.4580078125,17.752538681030273,68.37762451171875,-16.4686333413295,-6.4508600868943216,-20,18,102,12,7,12,13,
523,330,-261,-118,735,788.8409423828125,21.289207458496094,65.6685562133789,-19.32129729195881,-8.602967881867094,85,-92,95,10,9,10,10,
524,330,-210,-119,730,768.8699340820312,18.29425811767578,60.457698822021484,-15.850493039201783,-8.903607949170366,-30,-46,592,8,9,6,8,
525,330,-232,-141,719,768.5479736328125,20.68395233154297,58.7069206237793,-17.56983084140325,-10.571526152287515,8,-890,-945,15,10,10,10,
526,333,-188,-84,740,768.1145629882812,15.54757308959961,65.92113494873047,-14.167364477682254,-6.278347913651031,-9,196,613,7,8,6,10,
527,333,-225,-81,686,726.486083984375,19.216196060180664,70.19788360595703,-18.04175473280362,-6.401537575558749,-27,-7,705,15,9,10,8,
528,333,-225,-96,725,765.157470703125,18.642942428588867,66.89033508300781,-17.101005929793605,-7.207573065567675,-77,-38,-66,10,8,6,9,
529,333,-214,-108,725,763.6000366210938,18.29341697692871,63.21772384643555,-16.275211460067563,-8.130909476913537,-78,-343,-249,8,9,8,7,
530,333,-211,-64,695,729.1378173828125,17.59978485107422,73.12338256835938,-16.82101273206783,-5.035611449970564,-124,-251,511,15,11,10,10,
531,332,-211,-78,754,786.8424072265625,16.610279083251953,69.70899200439453,-15.554830789920084,-5.689096945483102,-284,-104,536,8,8,7,8,
532,332,-252,-103,743,791.3040161132812,20.120895385742188,67.76537322998047,-18.569919515528277,-7.479121039307035,277,-22,-503,9,8,13,8,
533,332,-229,-82,693,734.4481201171875,19.338665008544922,70.29541015625,-18.167665243152264,-6.410350919114519,-33,-457,650,6,8,7,7,
534,332,-217,-114,696,737.9031372070312,19.399538040161133,62.28153610229492,-17.10217146448827,-8.88732511201758,-108,-188,-637,12,7,6,6,
535,332,-239,-60,723,763.8389892578125,18.81828498840332,75.90428924560547,-18.233672954639836,-4.505258224384641,28,-583,440,16,12,16,8,
536,329,-219,-116,744,784.1893920898438,18.42067527770996,62.08723831176758,-16.216597416705017,-8.506606563852209,37,-22,261,16,13,10,9,
537,329,-200,-127,781,816.1433715820312,16.872962951660156,57.580848693847656,-14.185083103908898,-8.952170997968809,-376,-196,-466,7,7,9,7,
538,329,-235,-103,693,738.9743041992188,20.314878463745117,66.32891082763672,-18.542521473419324,-8.012109203698023,-59,-63,606,6,6,10,10,
539,329,-210,-98,709,745.9121704101562,18.09819221496582,64.97972106933594,-16.35180851865433,-7.5495038236570995,-137,-269,568,10,8,8,7,
540,329,-237,-73,752,791.8345947265625,18.248945236206055,72.87712097167969,-17.415860921214446,-5.28966473082743,20,-148,-46,16,9,11,7,
541,340,-222,-140,766,809.7160034179688,18.911104202270508,57.759613037109375,-15.912569793358378,-9.956481637121051,-95,136,-18,7,7,6,5,
542,340,-216,-180,790,838.5440063476562,19.589080810546875,50.19059753417969,-14.927070804498907,-12.395451604967516,-183,-102,-134,11,8,9,9,
543,340,-225,-97,734,773.8152465820312,18.457544326782227,66.67524719238281,-16.90388610233936,-7.201137080471895,-15,-61,13,12,6,8,11,
544,340,-249,-88,668,718.309814453125,21.569265365600586,70.53266906738281,-20.282371930510788,-7.036973098454109,202,114,120,15,7,12,12,
545,340,-270,-100,718,773.5786743164062,21.84916114807129,69.6736068725586,-20.4278253537087,-7.427371756660884,259,-67,-223,11,10,10,10,
546,341,-222,-108,705,746.9758911132812,19.297117233276367,64.05428314208984,-17.289406510812057,-8.313131075222502,15,-458,490,6,8,11,12,
547,341,-240,-71,702,745.2817993164062,19.620439529418945,73.51688385009766,-18.785482941629773,-5.4666285047966845,105,-148,822,11,9,10,9,
548,341,-208,-93,710,745.6627807617188,17.789690017700195,65.90648651123047,-16.197336514824755,-7.164658955787187,-61,-229,-397,11,5,8,7,
549,341,-238,-141,752,801.2671508789062,20.194547653198242,59.352378845214844,-17.27927711927768,-10.135185476225953,45,-247,-159,7,7,7,9,
550,341,-234,-91,715,757.80078125,19.346603393554688,68.7462158203125,-17.986222193450292,-6.896969740846187,-37,-186,428,8,6,5,6,
551,342,-202,-90,700,734.100830078125,17.530115127563477,65.98153686523438,-15.971940722464872,-7.042120118727282,-98,-236,-643,11,7,9,8,
552,342,-208,-75,729,761.7939453125,16.8705997467041,70.16863250732422,-15.845228055017431,-5.6500264008423775,-61,-123,465,9,4,7,6,
553,342,-216,-109,754,791.8667602539062,17.78831672668457,63.219688415527344,-15.829352564681274,-7.9118508194641635,-43,123,828,11,8,6,9,
554,342,-234,-109,758,800.750244140625,18.804481506347656,65.01993560791016,-16.991266799841387,-7.823524304095554,-58,261,-18,6,7,6,5,
555,345,-240,-108,721,767.53173828125,20.051109313964844,65.76889038085938,-18.221456252085492,-8.088978672973415,77,-20,159,11,9,7,7,
556,345,-224,-69,713,750.5371704101562,18.19527244567871,72.87614440917969,-17.364705485191703,-5.274887571025006,-32,-379,-982,9,6,9,6,
557,345,-224,-96,748,786.699462890625,18.04392433166504,66.7980728149414,-16.542943318201882,-7.009205777318033,3,-102,62,9,6,8,9,
558,345,-237,-146,767,815.9497680664062,19.94489097595215,58.361942291259766,-16.885441388964345,-10.307592180221155,65,-138,-37,9,6,6,6,
559,345,-240,-126,752,799.3622436523438,19.820043563842773,62.297054290771484,-17.471979519826018,-9.069107697839216,-56,167,338,9,7,9,11,
560,350,-241,-88,714,758.6968994140625,19.762969970703125,69.93733215332031,-18.52086039686241,-6.660634634189797,-51,-96,1065,15,7,14,9,
561,350,-230,-131,740,785.9141235351562,19.679529190063477,60.332130432128906,-17.016844735679772,-9.595126552096787,71,-749,283,7,8,7,9,
562,350,-216,-108,717,756.5771484375,18.612117767333984,63.431514739990234,-16.588518677490995,-8.206901970269417,1,-351,-271,8,9,10,8,
563,350,-226,-102,726,767.1740112304688,18.854534149169922,65.70567321777344,-17.132813018411824,-7.640412373205456,-74,-37,-340,10,8,6,7,
564,350,-234,-158,746,797.64404296875,20.72869110107422,55.96857452392578,-17.059458282934358,-11.424900761052246,2,-253,-243,7,11,8,8,
565,352,-225,-94,731,770.5984497070312,18.445510864257812,67.32258605957031,-16.976584218351423,-7.006567510189483,-83,-280,-73,12,12,8,7,
566,352,-223,-99,690,731.8674926757812,19.471790313720703,66.05799865722656,-17.74011450677684,-7.77425562153285,100,-115,98,12,8,11,11,
567,352,-213,-96,714,751.2529296875,18.116954803466797,65.73533630371094,-16.470780938041504,-7.341702387098772,-78,-190,1109,12,8,11,12,
568,352,-225,-69,732,768.9017944335938,17.820775985717773,72.94781494140625,-17.015184784927477,-5.148556228939982,6,541,1115,8,8,8,10,
569,352,-228,-65,702,740.9541015625,18.659109115600586,74.08467864990234,-17.921360556065444,-5.03272594372997,60,50,226,10,9,8,8,
570,358,-237,-133,765,811.8392944335938,19.555639266967773,60.69614791870117,-16.9735201278786,-9.429014015917495,86,227,-723,11,10,8,5,
571,358,-236,-162,739,792.5029907226562,21.171846389770508,55.52903747558594,-17.324953981622986,-11.795292776621812,-44,-99,-989,11,10,10,7,
572,358,-230,-91,740,780.2442016601562,18.480297088623047,68.41036987304688,-17.14431624288556,-6.69765875152752,-64,116,601,8,7,7,9,
573,358,-223,-70,724,760.7923583984375,17.889474868774414,72.56968688964844,-17.044566478259547,-5.27921337320219,63,658,306,5,8,7,8,
574,358,-217,-144,792,833.719970703125,18.200231552124023,56.428314208984375,-15.08663175743824,-9.945995434575348,-73,-86,127,6,7,6,6,
575,357,-224,-216,814,871.45166015625,20.91897201538086,46.03767776489258,-14.894638894674666,-14.351049182087555,18,-166,1225,16,8,7,7,
576,357,-222,-63,738,773.2379760742188,17.361862182617188,74.15380096435547,-16.684677423325372,-4.673386098163981,-24,-85,305,8,10,8,6,
577,357,-214,-107,723,761.5602416992188,18.3085880279541,63.431514739990234,-16.32002015798562,-8.076839858449027,-29,-263,-336,7,6,6,7,
578,357,-212,-84,713,748.5780029296875,17.733434677124023,68.38192749023438,-16.451500566842352,-6.442887124677613,-36,15,-659,9,6,6,6,
579,357,-219,-110,708,749.2162475585938,19.09114646911621,63.32695388793945,-16.99603085885551,-8.442690940607902,-11,-331,-319,9,8,9,10,
580,361,-232,-105,752,793.94775390625,18.70587158203125,65.6457748413086,-16.990352171395102,-7.599660655542061,19,-385,793,10,11,10,11,
581,361,-218,-76,747,781.862548828125,17.172147750854492,70.77700805664062,-16.189874591085935,-5.578174839126481,-6,28,1042,8,10,7,9,
582,361,-235,-189,774,830.6755981445312,21.28528594970703,51.18803787231445,-16.433496381340888,-13.151439182562315,96,24,683,11,13,13,11,
583,361,-234,-66,733,772.27001953125,18.348108291625977,74.24571228027344,-17.63804927834976,-4.902611453042437,-63,47,213,9,16,7,11,
584,361,-233,-66,648,691.7723388671875,20.489416122436523,74.18148040771484,-19.683005891020176,-5.474751782099025,-26,-143,-211,25,7,17,6,
585,368,-219,-51,670,706.7262573242188,18.550254821777344,76.88775634765625,-18.051970574792364,-4.138274008157821,-97,8,-791,22,8,17,11,
586,368,-210,-147,806,845.7807006835938,17.640445709228516,55.00428771972656,-14.376423788744207,-10.009061032115417,-255,65,223,18,12,11,9,
587,368,-208,-183,760,808.9208984375,20.026281356811523,48.654563903808594,-14.899993631526945,-13.075059183693229,-32,-123,643,11,11,15,10,
588,368,-228,-156,774,821.8248291015625,19.64073371887207,55.615989685058594,-16.106961950286774,-10.942366189355674,-90,-158,761,11,10,10,9,
589,368,-201,-87,705,738.23779296875,17.256175994873047,66.59197235107422,-15.7993901011722,-6.767932930715456,-188,95,833,9,8,13,12,
590,369,-206,-189,724,776.1011352539062,21.111562728881836,47.4604606628418,-15.392464512778325,-14.094680023717022,11,-756,-3,8,9,11,12,
591,369,-236,-123,749,794.8748168945312,19.558727264404297,62.46862030029297,-17.27163018665254,-8.90179536953425,154,401,74,7,9,6,7,
592,369,-263,-103,744,795.810302734375,20.786571502685547,68.60966491699219,-19.29795933967738,-7.436530244318696,14,778,-1577,10,10,8,8,
593,369,-198,-142,816,851.600830078125,16.62332534790039,54.349266052246094,-13.444495941899566,-9.598607606449336,-124,-279,-1359,13,9,11,13,
594,369,-240,-130,720,770.0,20.759319305419922,61.55358123779297,-18.161005484015675,-9.719867702432296,84,-308,1297,12,9,9,10,
595,366,-228,-99,707,749.4224243164062,19.368486404418945,66.5256576538086,-17.71210247755545,-7.59106007344034,147,-267,346,9,10,11,9,
596,366,-219,-68,712,748.0167236328125,17.8500919342041,72.74714660644531,-17.024117011163824,-5.21579172166062,-8,-274,749,5,10,8,7,
597,366,-231,-29,705,742.4466552734375,18.272735595703125,82.84159088134766,-18.127552205104347,-2.2385452834013995,-16,-138,-177,13,9,8,11,
598,366,-217,-101,762,798.7077026367188,17.435985565185547,65.03755950927734,-15.764789635328182,-7.264745799693903,-92,-166,491,11,10,10,10,
599,370,-228,-88,726,766.0313110351562,18.602649688720703,68.89188385009766,-17.315788417969895,-6.596577242043682,-4,-295,-128,20,8,16,9,
600,370,-225,-99,707,748.5151977539062,19.16997528076172,66.24715423583984,-17.493349668386955,-7.6003152300067915,79,-199,-890,13,10,10,6,
601,370,-222,-78,725,762.2289428710938,17.979089736938477,70.63777923583984,-16.93287040502726,-5.873441956519395,15,-54,-263,7,7,7,10,
602,370,-237,-117,728,774.4946899414062,19.95179557800293,63.72235107421875,-17.818696171699766,-8.688721899853043,10,-90,869,6,8,9,7,
603,370,-197,-156,755,795.7197875976562,18.406877517700195,51.62127685546875,-14.334034963997645,-11.306004546229973,-12,-186,631,7,5,8,8,
604,369,-213,-78,726,760.6109619140625,17.34882926940918,69.88416290283203,-16.262475344221514,-5.885980481823364,-3,-104,343,8,8,10,8,
605,369,-228,-102,711,753.5973510742188,19.354402542114258,65.89440155029297,-17.610755993525135,-7.778904878170201,53,-257,-335,9,5,6,5,
606,369,-225,-132,739,783.6900024414062,19.440608978271484,59.59772491455078,-16.684615396701528,-9.696778032294905,-71,-461,-431,9,7,7,9,
607,369,-209,-106,746,781.9418334960938,17.43712615966797,63.103477478027344,-15.502671999223415,-7.791000826080587,-138,-318,-271,9,10,8,8,
608,369,-243,-69,711,754.540283203125,19.55719757080078,74.14495086669922,-18.78697046385051,-5.246823631358877,70,-217,485,9,7,9,10,
609,382,-237,-73,734,774.7606201171875,18.66585922241211,72.87712097167969,-17.812374948937254,-5.406580425103159,52,-68,570,10,7,9,10,
610,382,-218,-128,711,754.605224609375,19.571069717407227,59.57687759399414,-16.791680580959074,-9.76602371665649,-40,-561,687,13,7,10,9,
611,382,-191,-115,746,778.6026000976562,16.637054443359375,58.944522857666016,-14.200230221618964,-8.493691158463351,-138,-274,487,9,7,9,9,
612,382,-228,-69,732,769.7850341796875,18.02412986755371,73.15937805175781,-17.22870379054153,-5.142633057171812,162,-152,212,7,7,11,8,
613,382,-224,-73,758,793.7688598632812,17.263689041137695,71.94639587402344,-16.39143330468215,-5.276738107356849,-43,-107,-591,7,6,7,8,
614,380,-233,-139,744,791.9254760742188,20.033138275146484,59.177547454833984,-17.11074675487513,-10.10901113860986,45,-43,-484,6,8,5,5,
615,380,-225,-99,727,767.4340209960938,18.679588317871094,66.24715423583984,-17.048722340328357,-7.411885963523566,-20,-70,-258,9,10,6,11,
616,380,-246,-86,711,757.2536010742188,20.127090454101562,70.72748565673828,-18.956981239988526,-6.521053452483525,-46,-173,1141,8,5,7,6,
617,380,-218,-85,737,773.2515869140625,17.611629486083984,68.69549560546875,-16.375209421343303,-6.311016060074546,-103,-135,858,6,9,6,7,
618,380,-205,-96,738,771.9358520507812,17.0500545501709,64.90325927734375,-15.400593210036527,-7.143951763463852,-99,-223,36,9,7,8,9,
619,384,-261,-144,723,782.0396118164062,22.404090881347656,61.109920501708984,-19.4960986571853,-10.610640403661437,136,-66,203,11,8,8,8,
620,384,-270,-142,739,799.490478515625,22.429157257080078,62.25548553466797,-19.73772649439148,-10.230761885146606,82,-148,-745,7,11,6,8,
621,384,-196,-96,743,774.3907470703125,16.36736297607422,63.901145935058594,-14.661160871954264,-7.12118761946123,-89,-242,-700,4,7,5,6,
622,384,-214,-93,733,769.2424926757812,17.655603408813477,66.50787353515625,-16.1525516852743,-6.943940693062862,-147,-252,319,6,8,9,9,
623,384,-236,-127,753,799.2709350585938,19.589183807373047,61.710227966308594,-17.173674141108037,-9.14275282756564,200,-82,1033,8,8,10,10,
624,388,-248,-171,782,838.014892578125,21.06546401977539,55.40943908691406,-17.213759670616472,-11.774106064505485,33,11,900,10,10,12,12,
625,388,-195,-120,739,773.6575317382812,17.212446212768555,58.38890838623047,-14.59882440501876,-8.923024356921403,76,-132,28,6,8,12,10,
626,388,-213,-90,753,787.7042846679688,17.068687438964844,67.09090423583984,-15.688430817037894,-6.560718690954951,-98,-135,146,6,8,7,8,
627,388,-228,-90,756,794.7452392578125,17.96229362487793,68.45573425292969,-16.67152031031685,-6.502342555567794,-91,301,-422,8,7,6,5,
628,388,-222,-111,747,787.1556396484375,18.37783432006836,63.431514739990234,-16.381284712725876,-8.106528847912205,-10,-391,-476,6,7,8,7,
629,389,-225,-105,730,771.0706787109375,18.782556533813477,64.97972106933594,-16.965872476861254,-7.82652864238681,-5,-271,574,11,8,10,10,
630,389,-227,-75,753,790.0398559570312,17.611923217773438,71.71343994140625,-16.69801106504529,-5.447401263469547,-78,-114,898,10,12,9,9,
631,389,-171,-123,768,796.3629760742188,15.335332870483398,54.26888656616211,-12.39946477790221,-8.88502597354347,-387,30,539,9,7,11,10,
632,389,-193,-110,738,770.7094116210938,16.750226974487305,60.31557083129883,-14.502286276839293,-8.205598564432686,-185,-161,172,9,7,11,10,
633,389,-205,-72,714,746.3276977539062,16.923295974731445,70.6445083618164,-15.942842485841172,-5.536069708131212,-59,-134,290,12,11,9,7,
634,394,-228,-89,723,763.3046875,18.70024299621582,68.67349243164062,-17.379609534804185,-6.695819216517434,-100,-239,48,9,7,10,12,
635,394,-186,-87,756,783.3906860351562,15.193594932556152,64.92914581298828,-13.734872067880433,-6.376175367847777,-338,57,-57,8,13,9,7,
636,394,-227,-117,752,794.1800537109375,18.75531578063965,62.729129791259766,-16.608430987801988,-8.47174985437266,-63,189,1214,8,10,10,9,
637,394,-221,-139,747,791.3096923828125,19.262575149536133,57.82817459106445,-16.217466373500706,-10.116961122286728,-162,314,-1058,14,7,10,10,
638,392,-243,-96,718,764.0608520507812,19.994068145751953,68.43962860107422,-18.544282152048872,-7.217972961368554,52,61,-224,12,7,8,10,
639,392,-207,-78,745,777.1473388671875,16.535226821899414,69.34974670410156,-15.447705883430011,-5.76030821821673,-292,-132,316,7,11,9,9,
640,392,-238,-138,738,787.611572265625,20.44259262084961,59.889930725097656,-17.588550486155004,-10.091069315411744,63,16,1,10,7,10,10,
641,392,-244,-134,736,786.885009765625,20.715843200683594,61.22177505493164,-18.06425850295737,-9.804780720178234,-30,-32,180,6,8,9,8,
642,392,-253,-92,698,748.1156616210938,21.088844299316406,70.0136489868164,-19.766212110290837,-7.063866625983798,39,-58,-141,7,8,7,7,
643,402,-205,-98,725,759.7723388671875,17.39921760559082,64.4465103149414,-15.653417369232319,-7.411001507113209,-32,-197,-180,8,7,6,7,
644,402,-204,-139,711,752.634033203125,19.14455223083496,55.72688674926758,-15.726642295543934,-10.642750892095696,-126,-207,469,7,5,6,7,
645,402,-220,-99,708,747.9739379882812,18.81428337097168,65.76889038085938,-17.105249710070385,-7.60584767636631,-84,-105,833,8,9,9,10,
646,402,-205,-91,696,731.2468872070312,17.859708786010742,66.06008911132812,-16.28068163698351,-7.148704947571276,-51,-209,244,7,10,8,8,
647,402,-234,-80,753,792.568603515625,18.17889976501465,71.12223815917969,-17.17208402385511,-5.793166144317271,-33,-49,-292,6,8,6,7,
648,407,-213,-111,731,769.448486328125,18.187047958374023,62.471309661865234,-16.070601728161083,-8.294381536604865,-2,-146,-90,7,8,10,9,
649,407,-223,-130,755,797.906005859375,18.872873306274414,59.75600051879883,-16.229263818310905,-9.376799328698118,270,-184,437,9,8,8,7,
650,407,-231,-114,750,793.0050659179688,18.953691482543945,63.72993469238281,-16.935622211572046,-8.265304530494856,48,-272,809,8,7,7,7,
651,407,-241,-75,754,795.1239013671875,18.505794525146484,72.71052551269531,-17.643736726138656,-5.412466297704987,147,-149,319,7,12,8,7,
652,407,-204,-106,768,801.6707763671875,16.662551879882812,62.539791107177734,-14.742096925399082,-7.598119515467252,-269,-89,-578,12,13,12,10,
653,400,-233,-120,796,838.036376953125,18.222196578979492,62.747108459472656,-16.142716816805667,-8.232588471208839,-38,-23,-457,10,13,12,9,
654,400,-277,-117,763,820.114013671875,21.507219314575195,67.09832000732422,-19.740332855330657,-8.20197724942031,177,-120,-215,11,9,12,14,
655,400,-199,-96,717,750.2706298828125,17.124691009521484,64.24337768554688,-15.381073242518696,-7.351368001717229,-56,-146,258,8,8,10,9,
656,400,-203,-86,756,787.4902954101562,16.255619049072266,67.03694915771484,-14.938432049607103,-6.2696445088987,-145,-95,637,6,10,9,9,
657,400,-228,-136,784,827.7294311523438,18.7051944732666,59.180728912353516,-15.988971987392684,-9.456857065357093,279,-151,143,6,9,7,6,
658,410,-240,-142,769,818.0006103515625,19.93006134033203,59.38505554199219,-17.06151808005811,-9.996848111595863,298,-152,492,10,13,8,9,
659,410,-215,-99,696,735.1475830078125,18.78022003173828,65.2721939086914,-17.005186803009025,-7.739354930709229,-47,-154,452,9,10,10,10,
660,410,-207,-105,722,758.3917236328125,17.819368362426758,63.10032272338867,-15.839647577961005,-7.958215186709128,18,-81,68,8,9,10,11,
661,410,-228,-153,713,764.043212890625,21.05976676940918,56.132652282714844,-17.362276042490166,-11.551605571710184,105,-304,-400,12,10,8,10,
662,410,-216,-117,724,764.5397338867188,18.739900588989258,61.55358123779297,-16.410838549364342,-8.802748993903496,-138,-294,49,15,11,13,9,
663,414,-218,-124,741,782.2921752929688,18.696786880493164,60.36494064331055,-16.180739078366535,-9.120338205154205,-236,-154,930,9,10,9,6,
664,414,-219,-54,737,770.7437744140625,17.014612197875977,76.14551544189453,-16.507515612302683,-4.017559337797087,-124,139,546,12,10,8,6,
665,414,-214,-130,717,759.463623046875,19.24820327758789,58.71872329711914,-16.36633885869041,-9.85605222322265,102,-319,183,9,8,5,7,
666,414,-258,-117,661,719.1481323242188,23.19690704345703,65.60289001464844,-21.023928470114146,-9.363212970596674,63,19,-746,10,11,10,6,
667,414,-201,-100,688,723.7022705078125,18.069927215576172,63.545650482177734,-16.12527860426294,-7.942449866123007,-147,-314,-205,9,14,10,13,
668,420,-220,-62,726,761.1307373046875,17.473634719848633,74.2580795288086,-16.800708892147338,-4.6723623690374305,-153,-40,532,12,10,8,9,
669,420,-231,-84,711,752.2885131835938,19.068605422973633,70.0136489868164,-17.882324764759343,-6.410975157679455,1,-95,671,7,10,9,8,
670,420,-205,-125,750,787.4960327148438,17.749752044677734,58.623409271240234,-15.08897778700572,-9.133244200533577,-219,12,432,7,11,8,10,
671,420,-210,-126,717,757.6707763671875,18.85611915588379,59.03267288208008,-16.091089856698243,-9.572712625314978,-132,-298,890,9,13,7,7,
672,420,-223,-97,729,768.4913940429688,18.445783615112305,66.48869323730469,-16.868668123283104,-7.251291211247781,-2,-242,361,11,7,12,10,
673,417,-216,-120,760,799.1595458984375,18.008522033691406,60.941890716552734,-15.681164062961575,-8.6360684223164,-148,-276,20,8,7,9,11,
674,417,-225,-150,803,847.3098754882812,18.609233856201172,56.30628204345703,-15.399416660035158,-10.196863785896596,-304,8,-580,14,9,10,9,
675,417,-243,-89,744,787.7220458984375,19.177125930786133,69.88124084472656,-17.967920291954332,-6.487359893707378,-99,-40,-703,7,7,9,7,
676,417,-273,-90,720,775.2606201171875,21.7618350982666,71.7509536743164,-20.618241885592635,-6.666498324088234,93,-8,-405,6,8,8,9,
677,424,-215,-101,727,764.823486328125,18.092275619506836,64.833984375,-16.326500314058613,-7.588452157662828,22,-61,1310,9,8,9,11,
678,424,-207,-116,742,779.0179443359375,17.731801986694336,60.730804443359375,-15.409689694657231,-8.563499513150115,-28,-193,1560,9,8,8,7,
679,424,-231,-129,777,820.8111572265625,18.802295684814453,60.815677642822266,-16.345505271167777,-9.042183617704117,-168,102,-397,6,13,7,6,
680,424,-245,-104,737,783.587890625,19.854578018188477,66.99594116210938,-18.219870019393337,-7.626962434411097,60,-83,-886,7,10,8,10,
681,424,-231,-71,720,759.4747924804688,18.55200958251953,72.91154479980469,-17.70748727678051,-5.3641662616361065,143,123,-640,9,7,8,7,
682,424,-234,-126,712,759.9841918945312,20.466943740844727,61.69574737548828,-17.932788497689888,-9.543299784778643,175,-217,116,9,8,7,9,
683,424,-216,-126,701,744.2667236328125,19.6304931640625,59.74001693725586,-16.871039299424773,-9.746781417345375,7,-350,688,7,10,12,13,
684,424,-207,-84,666,702.4677734375,18.540725708007812,67.9095230102539,-17.13807585214657,-6.867773555478478,-90,-94,840,10,12,11,16,
685,424,-208,-57,753,783.2764282226562,15.980196952819824,74.671875,-15.39970762580948,-4.1731738418875075,-144,359,970,7,5,6,10,
686,424,-208,-120,766,802.7577514648438,17.403541564941406,60.01481628417969,-15.01707009552041,-8.597065291196149,-271,-70,16,11,7,8,7,
687,427,-213,-102,702,740.6598510742188,18.591585159301758,64.4080810546875,-16.713213725644636,-7.9156469837256935,32,-115,-652,8,10,9,12,
688,427,-211,-114,765,801.7119140625,17.40403175354004,61.61484909057617,-15.259240376071626,-8.174922834546411,-148,-199,-360,10,8,7,7,
689,427,-203,-51,729,758.4530029296875,16.017498016357422,75.89429473876953,-15.52447951783333,-3.8555997080099678,-166,150,106,7,6,6,8,
690,427,-212,-147,809,849.13720703125,17.684612274169922,55.2590217590332,-14.457700560572487,-9.96909182396363,-150,314,191,8,6,11,9,
691,427,-218,-153,768,812.86962890625,19.123794555664062,54.93379592895508,-15.556333552918,-10.849044365163317,-148,32,931,12,8,12,12,
692,426,-209,-81,720,754.0835571289062,17.290040969848633,68.81239318847656,-16.09063543393052,-6.166331800269552,-58,-216,933,7,6,9,7,
693,426,-233,-100,713,756.74169921875,19.574020385742188,66.76840209960938,-17.93265899912544,-7.5935894124111964,34,110,143,12,9,10,7,
694,426,-222,-116,695,738.7590942382812,19.817203521728516,62.4084587097168,-17.487871915716482,-9.03397215436257,-25,-329,-621,9,8,9,9,
695,426,-199,-102,749,781.668701171875,16.621112823486328,62.85855484008789,-14.748909968235589,-7.497911977372241,-139,0,-135,12,10,10,12,
696,426,-210,-58,727,758.9420166015625,16.679895401000977,74.55724334716797,-16.063406943200587,-4.382941458469502,-219,-307,-856,7,6,7,10,
697,430,-255,-97,743,791.5067749023438,20.16092872619629,69.17030334472656,-18.79422782833357,-7.039354752007687,-48,-274,142,10,7,8,10,
698,430,-239,-57,707,748.477783203125,19.1617374420166,76.58284759521484,-18.621489105643036,-4.3675637193061,19,344,1160,8,6,6,10,
699,430,-217,-183,722,775.7976684570312,21.460819244384766,49.85462188720703,-16.243023387475436,-13.643869973832858,48,-265,162,12,8,8,7,
700,430,-200,-159,769,810.33447265625,18.37703514099121,51.511512756347656,-14.288922311209307,-11.31572484937323,-65,-654,915,13,8,13,12,
701,430,-227,-82,705,745.1697998046875,18.896528244018555,70.13534545898438,-17.735818844914768,-6.317738790000263,-166,-357,661,10,7,8,7,
702,430,-207,-73,746,777.6207275390625,16.39324378967285,70.57122039794922,-15.438067512462617,-5.38663588782947,-152,-21,-522,8,6,7,5,
703,430,-213,-158,783,826.6934204101562,18.709245681762695,53.428829193115234,-14.930842188712498,-11.018319598832658,24,25,-1132,7,8,9,10,
704,430,-225,-171,778,827.7378540039062,19.9613037109375,52.76140594482422,-15.77290470820472,-11.92242440385059,-172,46,399,9,5,8,8,
705,430,-202,-131,719,758.23876953125,18.51116371154785,57.03236770629883,-15.45056509136612,-9.948842225233124,-225,-512,1254,18,10,11,11,
706,430,-215,-66,729,762.9036865234375,17.14325523376465,72.93157958984375,-16.368739837111118,-4.962952156511001,-81,-53,-39,9,7,9,10,
707,435,-222,-91,741,778.8748168945312,17.9392147064209,67.70748138427734,-16.56043518933539,-6.709488179023271,-53,-71,93,10,9,10,10,
708,435,-192,-144,812,846.7254638671875,16.463741302490234,53.1263542175293,-13.106153389050558,-9.791710593478475,-573,187,-363,8,7,9,10,
709,435,-304,-69,749,811.2816772460938,22.594993591308594,77.20899200439453,-22.006743151064555,-4.8789348899480105,9,191,-2022,11,8,13,10,
710,435,-228,-118,718,762.5169067382812,19.672760009765625,62.63298797607422,-17.398137453729426,-8.902336309344346,-31,-419,147,14,6,12,10,
711,435,-235,-108,714,759.3977661132812,19.909618377685547,65.31432342529297,-18.026433580738786,-8.17621010577417,-9,-127,967,9,9,7,9,
712,431,-204,-120,703,741.7715454101562,18.604583740234375,59.5308952331543,-15.963044899741147,-9.309931639609697,-251,-55,724,9,9,8,11,
713,431,-210,-139,765,805.3856201171875,18.21924591064453,56.4955940246582,-15.114252200956532,-9.938332742021931,-109,629,79,10,8,9,10,
714,431,-214,-79,723,758.1332397460938,17.509042739868164,69.73467254638672,-16.395868685241368,-5.9812683726367855,-60,-58,482,8,6,11,9,
715,431,-237,-90,703,747.3138427734375,19.82806396484375,69.20262145996094,-18.48980014668566,-6.916996375934279,14,29,-160,9,6,8,10,
716,431,-249,-186,687,754.0331420898438,24.340177536010742,53.23696517944336,-19.282384430271794,-14.280754152941762,269,-415,-1166,18,8,12,12,
717,439,-220,-70,742,777.0868530273438,17.281009674072266,72.3467025756836,-16.44582553114017,-5.1682105544308685,-76,-295,301,6,6,9,9,
718,439,-216,-66,690,726.0247802734375,18.122753143310547,73.00601959228516,-17.308139243448412,-5.215729959140397,16,-220,533,12,7,9,9,
719,439,-242,-36,699,740.58154296875,19.28891372680664,81.53580474853516,-19.072858684971294,-2.786271571636232,65,161,-773,11,7,8,5,
720,439,-211,-112,792,827.2418212890625,16.78218650817871,62.03691101074219,-14.777405910358775,-7.781153585662246,-235,71,1445,15,6,12,9,
721,438,-228,-113,709,753.2821655273438,19.741418838500977,63.63290023803711,-17.618366801261452,-8.627517184874153,334,-96,-534,10,6,10,8,
722,438,-213,-96,717,754.1047973632812,18.04606819152832,65.73533630371094,-16.406729136601445,-7.313786032913724,-155,-328,159,13,9,7,8,
723,438,-232,-90,750,790.2050170898438,18.353408813476562,68.79390716552734,-17.07328774192795,-6.539865067636184,-71,-274,931,9,5,6,5,
724,438,-226,-83,732,770.5770263671875,18.204225540161133,69.83065795898438,-17.054828648485792,-6.183409514054784,-271,-183,-368,8,5,11,10,
725,438,-211,-147,770,811.806640625,18.465700149536133,55.1320686340332,-15.064966017733791,-10.43253354964116,-296,248,-202,8,5,7,8,
726,455,-231,-177,774,826.9014282226562,20.603660583496094,52.535675048828125,-16.221781197502096,-12.35992269687313,-95,-63,402,10,6,6,10,
727,455,-246,-91,774,817.2349853515625,18.71830177307129,69.69636535644531,-17.51857765796386,-6.393205492500584,-62,498,936,5,8,12,10,
728,455,-237,-104,704,750.0673217773438,20.183107376098633,66.30389404296875,-18.41948041416803,-7.969979195472796,17,1651,-556,6,8,9,14,
729,455,-242,-79,657,704.5949096679688,21.177858352661133,71.91773223876953,-20.087801960631758,-6.4376056675716065,342,11,261,16,12,16,14,
730,455,-226,-138,774,818.0440063476562,18.88480567932129,58.587371826171875,-16.037637964091882,-9.711956956939279,-144,2,693,8,9,12,12,
731,451,-258,-86,762,809.0759887695312,19.639278411865234,71.56185150146484,-18.59534302998461,-6.101729818916342,-156,113,-2235,10,8,9,11,
732,451,-193,-70,686,716.0621337890625,16.658931732177734,70.06134033203125,-15.636281859054558,-5.610016102764266,-389,-122,673,6,8,5,9,
733,451,-261,-129,657,718.617431640625,23.897815704345703,63.69554901123047,-21.296691406986568,-10.341299951142748,172,-295,-105,11,9,12,8,
734,451,-216,-68,727,761.451904296875,17.298974990844727,72.52205657958984,-16.479281212718476,-5.123515059270603,-161,-152,209,5,6,7,8,
735,451,-224,-90,776,812.6820068359375,17.278141021728516,68.10713958740234,-15.999595733480986,-6.3582302789283345,-29,-68,660,9,8,9,10,
736,455,-233,-106,770,811.4338989257812,18.386741638183594,65.53414916992188,-16.687167875199,-7.50616915559399,-62,-203,-225,8,7,8,6,
737,455,-246,-159,740,795.8624267578125,21.592926025390625,57.12010955810547,-18.00491926424413,-11.524285704177254,-19,-117,144,8,8,9,11,
738,455,-230,-93,708,750.2086181640625,19.30891227722168,67.9808578491211,-17.853328884686782,-7.121019502306126,205,-137,383,12,7,8,8,
739,455,-254,-87,704,753.4593505859375,20.873455047607422,71.08944702148438,-19.701003498102597,-6.630585245067367,-88,-358,28,9,7,8,6,
740,455,-195,-55,707,735.4583740234375,15.988755226135254,74.24571228027344,-15.375317862424664,-4.2887710921820865,-197,-391,75,11,5,7,7,
741,461,-234,-180,803,855.549560546875,20.18383026123047,52.42764663696289,-15.873145408632277,-12.145272206594122,11,155,-169,10,7,7,7,
742,461,-206,-160,784,826.2517700195312,18.400197982788086,52.15977096557617,-14.43719866962591,-11.16561266894969,-102,-191,-15,11,8,13,13,
743,461,-240,-112,714,761.5379028320312,20.34949493408203,64.97972106933594,-18.369974453687707,-8.457213781185008,-67,-164,-750,11,7,6,11,
744,461,-249,-82,756,800.1630859375,19.1226749420166,71.76920318603516,-18.130752268452564,-5.881946397550497,167,23,684,11,7,9,11,
745,461,-260,-109,744,795.6236572265625,20.751142501831055,67.25174713134766,-19.073915640968114,-7.874254103588763,-13,-155,-270,11,11,10,11,
746,459,-214,-135,741,783.00830078125,18.851009368896484,57.750980377197266,-15.861022290993535,-9.928085518505343,-71,98,998,9,6,7,7,
747,459,-217,-156,759,804.6775512695312,19.395795822143555,54.28416061401367,-15.644823004197375,-11.178513462620836,-150,0,-402,8,7,6,6,
748,459,-198,-60,701,730.893310546875,16.441131591796875,73.1384506225586,-15.717911192457523,-4.708785445323039,-263,157,-786,11,7,8,7,
749,459,-230,-72,709,748.8424682617188,18.772037506103516,72.61444854736328,-17.887000707568976,-5.51742069043197,-47,34,799,13,5,9,10,
750,459,-222,-111,689,732.3428344726562,19.808841705322266,63.431514739990234,-17.646099654302382,-8.717826295119558,58,-128,304,8,9,10,11,
751,470,-238,-129,717,766.4032592773438,20.682592391967773,61.5380744934082,-18.091864717239236,-9.690078702486966,276,-160,-360,13,10,13,13,
752,470,-228,-48,726,762.4722900390625,17.79105567932129,78.10833740234375,-17.39918739535299,-3.6093340463836605,29,-523,974,12,8,11,9,
753,470,-183,-76,717,743.877685546875,15.446756362915039,67.44354248046875,-14.241422349880168,-5.863988984910155,-182,-167,-416,8,8,8,11,
754,470,-241,-103,735,780.330078125,19.623247146606445,66.85548400878906,-17.989558569334232,-7.584915716556394,-89,-26,979,6,9,6,9,
755,470,-234,-160,728,781.2426147460938,21.273099899291992,55.633544921875,-17.428945876203635,-11.817905047147793,235,-448,-1014,15,12,12,9,
756,466,-228,-77,723,761.9986572265625,18.407957077026367,71.33597564697266,-17.410347050727214,-5.799639806290209,-175,-382,-851,8,8,7,10,
757,466,-224,-65,726,762.54638671875,17.808399200439453,73.81526947021484,-17.08275403539909,-4.889867085331278,-80,-90,584,11,10,7,10,
758,466,-208,-116,723,761.2154541015625,18.230010986328125,60.84842300415039,-15.857586139141,-8.765332192429781,-142,-122,1009,6,6,5,6,
759,466,-228,-162,783,831.4547729492188,19.65498161315918,54.601497650146484,-15.915427643599218,-11.235331793016119,-234,211,94,6,7,5,8,
760,459,-246,-110,750,796.941650390625,19.761194229125977,65.90461730957031,-17.97970295773869,-7.93373207019162,-149,45,-91,10,10,10,10,
761,459,-230,-79,741,779.8858642578125,18.167226791381836,71.0403060913086,-17.152436859058863,-5.813854939096508,-156,-385,682,9,8,6,9,
762,459,-208,-95,730,764.9764404296875,17.39069366455078,65.44898986816406,-15.777584788541432,-7.1337984597208015,-187,-294,-771,8,7,9,10,
763,459,-204,-153,825,863.51025390625,17.173751831054688,53.1263542175293,-13.665023606602041,-10.20576471270788,-324,-82,-933,7,6,6,10,
764,459,-239,-159,739,792.79443359375,21.226154327392578,56.361637115478516,-17.545633018745875,-11.569497979475997,-168,-120,723,16,9,10,10,
765,468,-233,-87,740,780.6779174804688,18.575300216674805,69.5215835571289,-17.365043783625417,-6.398424498741478,-140,88,-294,7,8,10,11,
766,468,-255,-100,731,780.6317749023438,20.539011001586914,68.58374786376953,-19.066084145207,-7.35989131285286,67,-221,591,9,8,10,11,
767,468,-231,-111,735,778.4002685546875,19.220916748046875,64.33140563964844,-17.263253655071175,-8.198334001998727,-29,-255,683,8,7,8,7,
768,468,-213,-93,711,748.0233764648438,18.099851608276367,66.40962219238281,-16.543932489971592,-7.141930788822906,-107,-112,43,8,6,8,8,
769,468,-220,-126,718,761.4459838867188,19.446134567260742,60.19552230834961,-16.79354670739743,-9.524808255263675,-78,-83,-704,8,7,7,12,
770,473,-216,-116,765,803.3286743164062,17.76818084716797,61.759063720703125,-15.5977037080352,-8.302488190571228,-177,-164,-557,10,12,10,8,
771,473,-241,-122,727,775.5604248046875,20.3807373046875,63.146934509277344,-18.104014480239385,-9.050538001259914,121,-138,307,10,8,8,10,
772,473,-183,-83,676,705.2332763671875,16.552549362182617,65.59986877441406,-15.039719623208217,-6.758894055808487,-129,-517,245,10,9,10,11,
773,473,-226,-72,731,768.5186767578125,17.974876403808594,72.32577514648438,-17.10191183440236,-5.3757375306886015,110,-42,763,9,5,8,10,
774,473,-213,-144,774,815.5863037109375,18.373449325561523,55.93543243408203,-15.139011565528241,-10.169459275528206,-14,74,675,10,8,9,8,
775,475,-221,-132,768,809.9932250976562,18.52812385559082,59.147193908691406,-15.833440337151972,-9.378998570317817,122,-5,-725,7,6,8,6,
776,475,-198,-92,772,802.2792358398438,15.789294242858887,65.0748519897461,-14.288047431643454,-6.584781176896198,-88,81,154,9,11,6,9,
777,475,-234,-90,687,731.3173217773438,20.04677963256836,68.95921325683594,-18.661143869135692,-7.069060080595956,107,-190,-459,12,13,8,6,
778,475,-226,-77,726,764.2518920898438,18.202190399169922,71.18240356445312,-17.200357431812424,-5.7824824237272345,-54,-185,-166,12,7,8,5,
779,475,-219,-104,770,807.26513671875,17.474815368652344,64.59420776367188,-15.74082560678924,-7.40199005786018,-99,-8,736,10,7,7,9,
780,487,-237,-147,766,815.1895751953125,20.003604888916016,58.187015533447266,-16.901660887160176,-10.388758205380435,-67,-87,688,8,6,7,7,
781,487,-227,-175,760,812.25244140625,20.66134262084961,52.366703033447266,-16.228561625250244,-12.44194469815068,58,-400,699,9,8,5,7,
782,487,-222,-92,731,769.4862060546875,18.195585250854492,67.48686218261719,-16.76842596615722,-6.866726932429604,-125,-106,-196,7,7,8,6,
783,487,-237,-136,733,782.27490234375,20.44248390197754,60.147544860839844,-17.635628345814297,-10.011854530120342,172,-276,-34,9,7,6,8,
784,487,-208,-106,724,760.7075805664062,17.869688034057617,62.99245834350586,-15.868453132596139,-8.00988548202138,-18,-400,-75,10,5,7,8,
785,477,-241,-103,744,788.8130493164062,19.403676986694336,66.85548400878906,-17.789591619371564,-7.502874709591695,-69,173,-1148,10,8,7,6,
786,477,-226,-107,704,747.0883178710938,19.55217742919922,64.66131591796875,-17.608285607634,-8.234372395696091,-2,-113,-182,5,7,7,8,
787,477,-249,-96,732,779.1283569335938,20.028261184692383,68.91297149658203,-18.638004961815064,-7.077663656874107,49,-114,2192,13,7,12,14,
788,477,-244,-101,711,758.4576416015625,20.373811721801758,67.51033782958984,-18.766098008516316,-7.652523148393578,40,-175,791,9,7,8,7,
789,477,-228,-122,728,772.5619506835938,19.553159713745117,61.8458251953125,-17.164850513791457,-9.085961842776666,-74,-338,-612,5,7,7,7,
790,478,-222,-66,735,770.6263427734375,17.48782730102539,73.43978881835938,-16.7428845650348,-4.913093865345174,-56,-61,-846,5,8,5,6,
791,478,-216,-70,726,760.6786499023438,17.36514663696289,72.04065704345703,-16.4965115237341,-5.280004747875599,-93,112,-356,6,5,5,6,
792,478,-234,-117,745,789.6011352539062,19.347545623779297,63.431514739990234,-17.238635702923464,-8.521242094417381,3,8,-338,10,11,7,7,
793,478,-228,-122,731,775.3895874023438,19.478961944580078,61.8458251953125,-17.100324384689028,-9.052549116961044,-1,-237,771,6,8,7,6,
794,478,-222,-101,704,745.051025390625,19.10616683959961,65.5332260131836,-17.335487906002843,-7.7910719639469335,5,-89,637,9,14,6,8,
795,487,-231,-51,739,775.9400634765625,17.74836540222168,77.54698181152344,-17.319716212530977,-3.7685806573015617,106,247,614,10,7,7,7,
796,487,-225,-86,739,777.2657470703125,18.051143646240234,69.07876586914062,-16.826605097633564,-6.352456364723937,80,1002,1102,9,8,7,9,
797,487,-221,-183,795,845.1952514648438,19.8435001373291,50.36956787109375,-15.15778219322856,-12.504601401738926,67,-185,-593,7,8,10,11,
798,487,-244,-99,731,776.9800415039062,19.807851791381836,67.91244506835938,-18.30265053750731,-7.320321262243608,173,-43,-1669,13,11,8,11,
799,489,-247,-135,749,800.1468505859375,20.594924926757812,61.33731460571289,-17.980502190772583,-9.713348939267854,83,-347,-950,8,8,8,9,
800,489,-227,-151,745,793.3189697265625,20.09821128845215,56.36457443237305,-16.62698188894183,-10.972602285284607,33,-308,183,11,6,6,8,
801,489,-207,-132,720,760.70556640625,18.826250076293945,57.47150802612305,-15.790207278493707,-9.992723658097477,-104,-306,1122,11,11,8,11,
802,489,-244,-133,739,789.5226440429688,20.606243133544922,61.402503967285156,-18.001837933305666,-9.698072573106366,75,-172,669,6,5,9,6,
803,489,-220,-141,774,816.919189453125,18.65283966064453,57.3401985168457,-15.622883286199048,-9.939004854425775,-65,-72,586,8,9,6,9,
804,501,-233,-90,709,751.7113647460938,19.40507698059082,68.87686920166016,-18.056783077830282,-6.87633584175654,8,173,-726,9,12,8,9,
805,501,-205,-99,729,763.7191772460938,17.34047508239746,64.21944427490234,-15.57046358561188,-7.448142468161841,90,144,-398,10,7,8,6,
806,501,-201,-102,729,763.0504760742188,17.178951263427734,63.090457916259766,-15.272875897826166,-7.681950212167462,-69,-18,-141,10,8,7,9,
807,501,-210,-108,745,781.5299072265625,17.585010528564453,62.78044128417969,-15.587145647888265,-7.943151118059259,16,-612,-269,6,5,8,10,
808,501,-229,-90,765,803.5956420898438,17.827482223510742,68.5412368774414,-16.557006412039165,-6.430424879223759,15,38,718,8,6,8,6,
809,504,-239,-183,756,813.7235107421875,21.708845138549805,52.55530548095703,-17.08029217870212,-12.996533642252508,182,-149,1485,5,9,9,9,
810,504,-233,-85,693,736.0455322265625,19.689884185791016,69.95443725585938,-18.454804530413956,-6.631426203674456,-20,-342,431,8,8,8,9,
811,504,-226,-83,714,753.4991455078125,18.63188362121582,69.83065795898438,-17.453637443856206,-6.324120568716568,-16,-240,-262,11,11,8,7,
812,504,-228,-57,753,788.8231811523438,17.331392288208008,75.960693359375,-16.800380921095787,-4.143778124727432,40,-167,-388,7,11,8,8,
813,504,-250,-216,789,855.3812255859375,22.719135284423828,49.169124603271484,-16.993748032716148,-14.626623450635366,52,-60,-524,10,12,8,5,
814,496,-219,-201,813,865.6390991210938,20.081880569458008,47.45012283325195,-14.654650679635877,-13.42653489275224,-257,31,308,9,11,10,9,
815,496,-217,-96,730,767.596923828125,18.004650115966797,66.1322250366211,-16.421443194200698,-7.1845466120679,-51,-191,625,8,6,8,8,
816,496,-239,-80,691,735.5283813476562,20.036752700805664,71.48995971679688,-18.961726428731744,-6.244148161580223,67,-19,67,10,9,11,11,
817,496,-224,-74,763,798.636962890625,17.17858123779297,71.71546936035156,-16.288727954602727,-5.316530975266254,-148,-107,985,14,8,9,7,
818,496,-192,-203,780,828.5366821289062,19.706714630126953,43.40080642700195,-13.399172935462731,-14.182441280455025,2,-22,-108,7,7,10,10,
819,499,-212,-112,762,798.8316650390625,17.464262008666992,62.14894485473633,-15.389984309753952,-8.059695043889873,83,61,-200,9,6,10,10,
820,499,-242,-127,759,806.7056274414062,19.800830841064453,62.306331634521484,-17.456732468160666,-9.057779321821558,-14,-158,-586,6,9,9,10,
821,499,-228,-105,726,768.169921875,19.070833206176758,65.26930236816406,-17.266064930530913,-7.856269629600003,12,-180,-812,8,9,11,8,
822,499,-228,-179,710,766.89306640625,22.20665168762207,51.86118698120117,-17.295717039066265,-13.49787671211947,65,-559,322,10,10,13,14,
823,499,-216,-88,706,743.5294189453125,18.279661178588867,67.8303451538086,-16.88827141674743,-6.797141501339839,-39,-356,1039,12,11,9,11,
824,502,-235,-27,690,729.4202880859375,18.9206600189209,83.44297790527344,-18.79442855927285,-2.12132771364062,74,-544,321,7,10,9,11,
825,502,-243,-76,680,726.1026000976562,20.524995803833008,72.62938690185547,-19.552073444759372,-6.008062134428577,121,50,379,11,10,12,9,
826,502,-252,-97,687,738.1612548828125,21.45519256591797,68.94397735595703,-19.961511839837492,-7.550940055477066,89,-317,-651,15,9,12,7,
827,502,-198,-99,726,759.0,16.95526885986328,63.431514739990234,-15.12166531490902,-7.494717453926686,-72,-352,270,11,11,9,11,
828,502,-219,-49,695,730.33349609375,17.893089294433594,77.38508605957031,-17.449375600996348,-3.847014843727302,19,-357,-517,11,10,10,6,
829,499,-229,-50,728,764.8038940429688,17.844926834106445,77.68028259277344,-17.42296012310212,-3.7484558245580626,71,-24,451,7,9,8,9,
830,499,-235,-137,759,806.2722778320312,19.71512222290039,59.75518035888672,-16.94567251539829,-9.78303886463076,17,-86,668,8,8,9,8,
831,499,-224,-147,757,803.0155639648438,19.48847007751465,56.721473693847656,-16.197458843980396,-10.548044992023563,69,136,58,9,12,10,10,
832,499,-224,-81,718,756.4793701171875,18.351058959960938,70.11640930175781,-17.224022621377454,-6.146727430937595,15,-168,243,6,10,9,11,
833,499,-222,-81,750,786.3491821289062,17.48683738708496,69.95150756835938,-16.398559387311707,-5.912392395085829,-36,-61,-164,7,7,6,7,
834,507,-228,-114,744,786.4578857421875,18.91055679321289,63.431514739990234,-16.852415341637816,-8.334599550194904,-32,-33,-481,7,11,7,5,
835,507,-225,-187,795,847.1239624023438,20.20184326171875,50.26582717895508,-15.402879913309949,-12.752906659870053,-140,13,502,9,9,8,8,
836,507,-236,-122,729,775.900146484375,20.02115821838379,62.65987014770508,-17.70780663198865,-9.046542517461413,48,-122,385,10,9,8,8,
837,507,-226,-84,709,748.87451171875,18.77924919128418,69.60758209228516,-17.56491916994333,-6.440325377469953,-17,-235,576,11,10,8,8,
838,512,-211,-134,718,760.2637939453125,19.192214965820312,57.577938079833984,-16.113156009361383,-10.151677360154697,-59,-248,192,9,9,9,10,
839,512,-214,-97,720,757.3671264648438,18.070924758911133,65.61321258544922,-16.41292203161961,-7.358383484017642,35,-334,-86,7,8,5,8,
840,512,-212,-153,750,794.2625732421875,19.216060638427734,54.17837142944336,-15.480729444555182,-11.10639650251032,-85,-372,156,6,7,7,6,
841,512,-228,-84,718,758.0,18.69445037841797,69.77188873291016,-17.50515204920378,-6.362468474011249,67,-238,-36,5,7,7,9,
842,512,-222,-95,711,750.8861694335938,18.756607055664062,66.82923126220703,-17.19655917930487,-7.2683796615593925,-39,-112,178,7,8,6,8,
843,505,-218,-106,708,748.3475341796875,18.89805030822754,64.0657730102539,-16.93631093902915,-8.14307098219598,48,14,347,8,9,6,10,
844,505,-222,-106,708,749.5225219726562,19.15867042541504,64.47317504882812,-17.228822774207412,-8.130218912182123,17,-330,171,9,10,8,8,
845,505,-219,-69,722,757.6318359375,17.63973617553711,72.50883483886719,-16.801604330657455,-5.225353853912142,34,-51,161,12,9,12,11,
846,505,-214,-110,755,792.4146728515625,17.674768447875977,62.79253005981445,-15.6678744627866,-7.9793511877790015,-151,-106,-133,9,13,12,10,
847,505,-234,-168,763,815.566650390625,20.681446075439453,54.319881439208984,-16.67347516952823,-11.88756084333411,88,-251,263,7,7,8,9,
848,509,-251,-140,734,788.2620239257812,21.3812255859375,60.845062255859375,-18.56752351764529,-10.230342370799002,20,-453,99,6,8,8,7,
849,509,-240,-79,717,760.2171020507812,19.410160064697266,71.77698516845703,-18.40303519358985,-5.964813471182104,51,-11,-143,9,10,6,8,
850,509,-192,-162,732,773.906982421875,18.939470291137695,49.84015655517578,-14.364625448101021,-12.08294407682442,16,-363,412,7,6,7,8,
851,509,-230,-138,763,808.7725219726562,19.366451263427734,59.03267288208008,-16.521885538167822,-9.824389036341012,163,-192,160,5,7,6,7,
852,509,-207,-168,759,804.4588012695312,19.351499557495117,50.9336051940918,-14.910853134827502,-12.05415028988954,64,-221,489,10,10,9,9,
853,516,-216,-102,737,774.7444458007812,17.956132888793945,64.71887969970703,-16.188693555830653,-7.5653147295192875,47,16,-175,6,9,8,8,
854,516,-222,-95,704,744.2613525390625,18.929914474487305,66.82923126220703,-17.354463587879195,-7.333430446931348,157,-409,-41,7,10,9,10,
855,516,-196,-136,741,778.4555053710938,17.843650817871094,55.24039840698242,-14.582904087226888,-10.061486011144298,-143,-323,407,9,8,8,11,
856,516,-234,-119,734,779.5338134765625,19.67789077758789,63.04107666015625,-17.468378704233118,-8.780838694549198,247,-175,528,9,7,7,9,
857,516,-203,-153,733,775.82666015625,19.12419891357422,52.991111755371094,-15.168369033867048,-11.373796278440487,-71,-229,208,9,8,9,12,
858,529,-236,-115,764,807.84716796875,18.96181297302246,64.01715087890625,-16.985787234920778,-8.18406560041631,-160,-211,-526,9,7,7,7,
859,529,-195,-105,710,743.7405395507812,17.32227325439453,61.69574737548828,-15.19994228932881,-8.11603309964914,-229,-104,-142,6,15,6,7,
860,529,-221,-91,699,738.7306518554688,18.87448501586914,67.61654663085938,-17.407266147665688,-7.075911879668008,75,119,592,7,10,8,8,
861,529,-227,-79,721,760.0072631835938,18.434309005737305,70.8079833984375,-17.378420145897103,-5.9664663299362415,15,-111,166,6,12,10,12,
862,529,-207,-79,734,766.711181640625,16.794618606567383,69.10774993896484,-15.663334527049663,-5.914110209906213,-41,-55,929,12,11,10,11,
863,529,-219,-91,779,814.299072265625,16.929866790771484,67.43256378173828,-15.60137604200637,-6.416352326600659,-208,-107,665,11,10,11,10,
864,529,-186,-143,722,759.163330078125,17.999649047851562,52.442535400390625,-14.182221236591007,-10.857397777278935,-314,-165,674,9,17,11,12,
865,529,-204,-129,712,751.7985229492188,18.724327087402344,57.68906784057617,-15.744573883398036,-9.880192305092688,-57,-292,-363,6,5,8,9,
866,529,-236,-69,720,760.8265380859375,18.852943420410156,73.69937133789062,-18.07061938995042,-5.20335210326583,1,44,-935,5,8,7,5,
867,529,-213,-84,754,787.9981079101562,16.88965606689453,68.47411346435547,-15.682430110263184,-6.119313581409618,-224,44,-28,8,7,6,6,
868,529,-211,-168,810,853.7241821289062,18.414546966552734,51.46909713745117,-14.309070775066399,-11.34900931270776,-92,165,466,6,11,11,10,
869,529,-221,-101,717,757.0541381835938,18.719005584716797,65.43557739257812,-16.972997974748758,-7.666795198614683,-62,-197,795,9,11,9,9,
870,529,-237,-119,751,796.448974609375,19.447399139404297,63.334877014160156,-17.311760700690698,-8.592922703169945,-118,-352,628,7,8,7,8,
871,529,-230,-68,718,756.9993286132812,18.46933364868164,73.52642822265625,-17.687858510738007,-5.153732149526927,-71,-222,54,9,9,8,6,
